blocknr	blocktype	trialnr	trialtype	trialstart	trialend	duration	probeNback	probeonset	probefixated	probefixtime	probeRT	imagename	imagechange	filler	response	RT	
0	blocked	0	memory	1346360.98993	1354371.26694	8010.27700771	None	None	False	0	0	clone_23	outlet.tv	False	incorrect	19864.9261417	
0	blocked	1	memory	1383000.06007	1391010.34372	8010.28364855	2	6011.08054981	True	1389016.27037	5.12975001452	clone_15	xtracupx2	False	incorrect	21587.6980783	
0	blocked	2	memory	1420652.09313	1428662.3152	8010.22206982	None	None	False	0	0	takeaway_49	chairlegs	False	incorrect	21078.9611426	
0	blocked	3	memory	1455678.41351	1463688.66305	8010.24953876	2	6024.38125447	True	1461986.41947	283.624705388	horizontal_32		False	correct	3268.25779273	
0	blocked	4	memory	1472765.12271	1480775.30735	8010.18463961	4	6024.34261683	False	0	0	color_37	redtogreenright	False	correct	10701.0639236	
0	blocked	5	memory	1497835.37258	1505845.58619	8010.21361784	novel	6010.9924077	True	1504281.94004	435.575060854	takeaway_72	paintingwords	False	incorrect	27125.9780152	
0	blocked	6	memory	1539459.13617	1547469.36126	8010.22508838	novel	6011.01112281	True	1545865.20143	395.054140989	color_26	flowerleftchair	False	correct	11165.5821967	
0	blocked	7	memory	1564636.01203	1572646.23923	8010.22720138	novel	6010.97097589	True	1571072.38308	425.400080656	horizontal_39		False	incorrect	3644.46310589	
0	blocked	8	memory	1581469.46812	1589479.63585	8010.16773564	4	6010.95648678	True	1587774.03955	293.614949385	takeaway_54	phonebutton	False	correct	14298.4087331	
0	blocked	9	memory	1611484.46284	1619494.65201	8010.18916746	2	6010.91996214	True	1617500.55179	5.16899136431	horizontal_66		False	incorrect	1971.11051813	
0	blocked	10	memory	1626758.52715	1634768.681	8010.15385024	2	6010.94441251	True	1633265.77049	496.298936982	clone_29	topshelf	False	incorrect	6488.65230715	
0	blocked	11	memory	1648856.5623	1656866.75418	8010.19188416	None	None	False	0	0	clone_71	cupsshelf	False	incorrect	5552.89220824	
0	blocked	12	memory	1667902.41189	1675912.67864	8010.26674459	novel	6011.06545699	True	1674141.65735	228.179998261	horizontal_8		False	incorrect	2599.96281127	
0	blocked	13	memory	1683709.66019	1691719.85419	8010.19399716	2	6010.96493876	True	1689928.31662	207.691485714	color_78	ovenclock	False	correct	9274.94723548	
0	blocked	14	memory	1706474.10735	1714484.34602	8010.23867193	novel	6011.00297268	True	1712677.7766	192.666274655	takeaway_74	sprinkler	False	correct	16108.4887492	
0	blocked	15	memory	1739487.83035	1747498.13302	8010.30266551	None	None	False	0	0	clone_22	xtra.orb.by.stair.rail	False	correct	18293.8045153	
0	blocked	16	memory	1772714.97981	1780725.18951	8010.2096937	4	6010.9806353	True	1778893.15969	167.199242219	color_18	magcolor	False	incorrect	16793.8971852	
0	blocked	17	memory	1806581.68449	1814591.99138	8010.30689151	2	6024.42955151	True	1813355.72797	749.613925488	clone_16	topbookself	False	correct	14377.3149378	
0	blocked	18	memory	1838222.72696	1846232.93665	8010.2096937	2	6024.38216004	False	0	0	color_9	chairs	False	incorrect	3079.8793902	
0	blocked	19	memory	1858521.59361	1866531.70973	8010.11611817	2	6024.34080569	True	1865249.93178	703.997365396	takeaway_99	blockoncushion	False	correct	11564.4901402	
0	blocked	20	memory	1885950.85413	1893960.91682	8010.06268957	4	6010.71319041	True	1892214.7821	253.214772134	clone_46	xtrawine	False	incorrect	9585.33182486	
0	blocked	21	memory	1911407.59809	1919417.87027	8010.272178	4	6011.07390897	False	0	0	clone_31	vase	False	correct	11157.2129224	
0	blocked	22	memory	1939636.60548	1947646.89003	8010.28455412	2	6024.38185818	True	1945666.10441	5.11707203998	color_88	bowltopshelf	False	incorrect	5378.5296085	
0	blocked	23	memory	1960815.04767	1968825.24348	8010.1958083	novel	6011.07873867	False	0	0	clone_36	light	False	incorrect	17951.3754395	
0	blocked	24	memory	1995681.58935	2003691.69067	8010.1013272	novel	6010.93777167	False	0	0	color_65	picright	False	correct	4895.21321938	
0	blocked	25	memory	2021391.47412	2029401.78403	8010.30991007	4	6011.07390897	True	2027717.21385	314.665820664	clone_25	wine	False	correct	14349.8082607	
0	blocked	26	memory	2052419.43872	2060429.70667	8010.26795201	4	6011.06696627	True	2058800.13173	369.626048046	takeaway_14	sharkteeth	False	incorrect	11724.0119632	
0	blocked	27	memory	2083194.20484	2091204.44381	8010.23897378	None	None	False	0	0	horizontal_3		False	correct	2879.5568263	
0	blocked	28	memory	2102360.07651	2110370.26176	8010.18524332	novel	6024.29703649	True	2108612.37485	228.001299191	color_13	wheelsleft	False	incorrect	10270.2488385	
0	blocked	29	memory	2128283.37567	2136293.46251	8010.08683809	None	None	False	0	0	color_15	flowers	False	incorrect	5933.47172449	
0	blocked	30	memory	2150554.59498	2158564.85478	8010.25980189	4	6024.4310608	False	0	0	color_4	wholepic	False	incorrect	3037.5334457	
0	blocked	31	memory	2169773.93481	2177784.07206	8010.13724813	2	6010.84389429	False	0	0	color_42	cups	False	correct	8778.00474035	
0	blocked	32	memory	2196310.23457	2204320.32774	8010.09317708	None	None	False	0	0	horizontal_71		False	incorrect	1574.60112677	
0	blocked	33	memory	2219381.2267	2227391.44363	8010.21693826	2	6010.98516315	False	0	0	takeaway_50	light	False	incorrect	4924.23129214	
0	blocked	34	memory	2241279.37396	2249289.59724	8010.22327724	4	6024.32027945	True	2247617.58942	313.895180921	horizontal_30		False	incorrect	7167.06280306	
0	blocked	35	memory	2266349.61387	2274359.86039	8010.2465202	4	6010.93777167	False	0	0	color_90	bookleft	False	correct	10578.9200901	
0	blocked	36	memory	2294724.94893	2302735.08738	8010.13845556	None	None	False	0	0	horizontal_59		False	correct	3933.51549369	
0	blocked	37	memory	2317183.19673	2325193.42122	8010.22448467	novel	6011.0035764	False	0	0	clone_68	platestopshelf	False	incorrect	8664.11819253	
