blocknr	blocktype	trialnr	trialtype	trialstart	trialend	duration	probeNback	probeonset	probefixated	probefixtime	probeRT	imagename	imagechange	filler	response	RT	
0	blocked	0	rating	770150.045082	778160.193742	8010.14866047	4	6011.30204769	False	0	0	horizontal_41		False	6	5959.4461085	
0	blocked	1	rating	802390.627891	810400.746668	8010.11877685	None	None	False	0	0	clone_43	butterflyright	False	5	5787.38917023	
0	blocked	2	rating	833178.481616	841188.606128	8010.12451209	2	6010.90510862	True	840734.361733	1544.97500793	horizontal_73		False	6	2761.4571256	
0	blocked	3	rating	850718.197106	858728.341842	8010.14473636	4	6010.94193491	False	0	0	horizontal_30		False	6	7946.81982377	
0	blocked	4	rating	873535.810394	881545.96479	8010.15439572	2	6010.91808838	False	0	0	clone_41	knobsleftcab	False	4	2419.00133752	
0	blocked	5	rating	896726.662624	904736.809473	8010.14684935	novel	6010.95008499	True	904378.629163	1641.0164538	color_71	ventreflection	False	6	971.599084897	
0	blocked	6	rating	923182.880244	931192.9631	8010.08285613	2	6010.87914911	True	929649.548984	455.789590296	clone_8	teapotsright	False	5	5360.0007969	
0	blocked	7	rating	963406.933786	971417.140101	8010.20631474	4	6010.97664821	False	0	0	takeaway_49	chairlegs	False	3	2017.47528036	
0	blocked	8	rating	1019464.81958	1027474.94379	8010.12421023	2	6010.88277137	True	1025658.17962	182.477268069	horizontal_75		False	6	1334.18104225	
0	blocked	9	rating	1036711.32991	1044721.41277	8010.08285613	4	6010.91989951	True	1043426.48039	704.23058568	clone_89	piconshelf	False	5	988.977168004	
0	blocked	10	rating	1090849.88459	1098860.06554	8010.18095894	novel	6010.94284047	False	0	0	color_91	cup	False	2	1619.24577954	
0	blocked	11	rating	1236725.50471	1244735.73155	8010.22684087	None	None	False	0	0	color_83	artbehindtable	False	5	9529.15962716	
0	blocked	12	rating	1262821.84499	1270832.02625	8010.18126079	novel	6011.00260772	True	1269035.64724	202.799642966	clone_51	bookshelf	False	5	2848.00493593	
0	blocked	13	rating	1282906.90918	1290917.38385	8010.47466367	novel	6011.3059718	True	1289201.96441	283.749254041	horizontal_6		False	4	2468.77266741	
0	blocked	14	rating	1308936.9869	1316947.13707	8010.15016975	novel	6010.89001588	True	1316665.15005	1717.27312819	horizontal_3		False	6	739.875110592	
0	blocked	15	rating	1470099.95197	1478110.2256	8010.27362836	4	6010.95974434	True	1476268.03258	157.120860552	horizontal_13		False	5	5143.23614313	
0	blocked	16	rating	1492357.81084	1500367.91664	8010.10579709	4	6010.84141726	True	1498647.37201	278.719749243	color_64	flowers	False	3	1284.79789764	
0	blocked	17	rating	1508591.35711	1516601.51905	8010.16194209	2	6010.93227555	True	1515493.7267	891.437314869	takeaway_36	backwindowbuildings	False	3	1.97050818172	
0	blocked	18	rating	1715069.66567	1723079.91697	8010.25129111	None	None	False	0	0	color_67	lightleft	False	5	6814.91410269	
0	blocked	19	rating	1744591.307	1752601.51875	8010.21174813	4	6010.98419458	True	1751422.83429	820.543091132	horizontal_34		False	2	2641.86345839	
0	blocked	20	rating	1762997.04001	1771007.56659	8010.52658269	novel	6011.30446253	True	1769514.93412	506.589641369	takeaway_59	spottopright	False	4	1827.47518678	
0	blocked	21	rating	1780790.35821	1788800.55366	8010.19544797	None	None	False	0	0	takeaway_3	wallpaint	False	5	6916.48673605	
0	blocked	22	rating	1803474.74607	1811484.91948	8010.17341257	novel	6010.93650152	True	1809490.86452	5.18194147572	clone_94	bottononwheel	False	5	3279.63889713	
0	blocked	23	rating	1849629.77176	1857639.9334	8010.16164023	4	6010.94284047	True	1855858.60034	217.885742522	takeaway_89	vent	False	3	1744.77451597	
0	blocked	24	rating	1877005.68694	1885015.82625	8010.13930298	novel	6010.947972	True	1883219.38868	202.753761035	color_87	picframe	False	4	3226.75755716	
0	blocked	25	rating	1926985.86384	1934996.1097	8010.24585772	2	6010.97483708	True	1933306.02765	309.188973485	color_29	cupright	False	3	2101.26232662	
0	blocked	26	rating	1945391.92043	1953402.06789	8010.14745306	2	6010.94163305	True	1951828.70223	425.840160032	takeaway_66	spottopleft	False	5	1014.73081645	
0	blocked	27	rating	1961785.41564	1969795.60656	8010.19092015	4	6011.04365998	False	0	0	takeaway_30	shotglass	False	5	2866.04347736	
0	blocked	28	rating	1983763.45872	1991773.61372	8010.15499942	2	6010.91688096	True	1989881.07253	106.696920568	takeaway_16	pillow	False	6	615.621408871	
0	blocked	29	rating	2018136.48576	2026146.65978	8010.17401628	novel	6010.985402	True	2024628.50004	481.028878147	horizontal_2		False	4	2044.25795184	
0	blocked	30	rating	2051350.07641	2059360.2296	8010.1531883	2	6011.00592813	True	2057594.20753	233.12518432	horizontal_12		False	5	1115.22341331	
0	blocked	31	rating	2075821.36746	2083830.56407	8009.19661041	4	6009.98807372	True	2082165.64192	334.286389578	takeaway_83	soap	False	4	4278.80879641	
0	blocked	32	rating	2103569.39536	2111579.59534	8010.19997579	2	6011.00804111	True	2109884.35701	303.953603709	takeaway_6	lightsonright	False	5	2905.00327362	
0	blocked	33	rating	2122535.22812	2130545.41209	8010.18397749	novel	6010.97181853	True	2129281.08901	734.889072887	clone_40	xtradoorknob	False	3	1698.71992432	
0	blocked	34	rating	2149457.96536	2157468.09832	8010.13296402	novel	6011.88674045	True	2156016.84561	546.993511027	takeaway_71	stickerdesk	False	2	663.387517278	
0	blocked	35	rating	2177486.81966	2185497.04831	8010.228652	novel	6011.01287079	True	2183832.43859	334.606053818	color_63	clock	False	3	1049.69526248	
0	blocked	36	rating	2211433.40675	2219443.61277	8010.20601289	4	6011.94348916	False	0	0	takeaway_81	lightabovetv	False	2	1022.24217147	
0	blocked	37	rating	2232398.47883	2240408.67549	8010.19665539	novel	6010.95008499	True	2238678.08694	268.658022954	clone_81	barsabovecouchleft	False	6	968.668074719	
0	blocked	38	rating	2266131.79977	2274141.98405	8010.18427934	4	6010.96427216	True	2272416.54847	273.784423145	clone_73	xtrahanging	False	4	1239.82092765	
0	blocked	39	rating	2292081.5817	2300091.73941	8010.15771612	2	6010.92774773	True	2298315.68096	223.171522052	horizontal_70		False	4	580.054460645	
0	blocked	40	search	2311847.02844	2319857.20879	8010.18035523	novel	6010.97664821	True	2318248.18804	390.182957218	color_49	spacepink	False	N	3384.62913062	
0	blocked	41	search	2330333.10493	2338343.26657	8010.16164023	2	6010.95793321	True	2336349.23122	5.16835800884	takeaway_93	statueheadleft	False	Z	2741.0499295	
0	blocked	42	search	2350418.46494	2358428.62356	8010.15862168	4	6010.97725192	True	2356931.0787	501.636505838	horizontal_74		False	Z	1828.24280355	
0	blocked	43	search	2368957.80281	2376967.96807	8010.16526249	4	6011.00351329	True	2374973.97559	5.16926357383	color_4	wholepic	False	Z	755.043918365	
0	blocked	44	search	2384858.2188	2392868.37832	8010.15952725	novel	6010.93499225	False	0	0	color_11	lemon2orange	False	Z	2758.20796045	
0	blocked	45	search	2402677.80139	2410688.0237	8010.22231305	novel	6010.99355208	True	2409149.96841	461.173472637	color_80	backchair	False	N	1562.13243517	
0	blocked	46	search	2418138.36572	2426148.52736	8010.16164023	4	6010.97302595	False	0	0	takeaway_23	rightknob	False	N	1445.1401527	
0	blocked	47	search	2433265.69773	2441275.86601	8010.16828104	2	6011.02524683	True	2439616.30149	339.578508058	clone_18	wine	False	Z	1893.42865103	
0	blocked	48	search	2448952.86356	2456963.05599	8010.19242942	novel	6011.96914682	False	0	0	clone_60	xtralight	False	Z	1005.79651786	
0	blocked	49	search	2464613.37531	2472623.53333	8010.15801797	None	None	False	0	0	horizontal_50		False	N	2366.3521239	
0	blocked	50	search	2497866.82619	2505876.99477	8010.16858289	4	6011.02343571	True	2505022.87818	1145.02855697	clone_2	statueright	False	N	922.577864202	
0	blocked	51	search	2512274.57921	2520284.69255	8010.11334346	2	6010.91265499	False	0	0	takeaway_1	.thermostat	False	N	1066.60396136	
0	blocked	52	search	2528348.1699	2536358.28958	8010.11968241	4	6010.90752346	False	0	0	clone_24	light	False	Z	1048.84373007	
0	blocked	53	search	2543328.90734	2551339.08015	8010.17280886	novel	6010.96970555	False	0	0	color_24	potsleft	False	Z	955.407894892	
0	blocked	54	search	2558069.71216	2566079.89584	8010.18367563	4	6010.98660942	True	2564384.6729	303.974129836	color_46	lemon	False	N	1110.1211615	
0	blocked	55	search	2572863.9486	2580874.135	8010.18639233	novel	6010.92050322	True	2580136.36864	1261.4995362	horizontal_51		False	Z	995.518965386	
0	blocked	56	search	2589910.46594	2597920.64026	8010.17431813	novel	6010.97996861	False	0	0	takeaway_60	lampsonwall	False	N	1140.55174833	
0	blocked	57	search	2605171.11545	2613181.26804	8010.15258459	2	6010.96246103	True	2611622.88072	440.802800971	horizontal_10		False	Z	3311.52683897	
0	blocked	58	search	2622910.74636	2630920.95268	8010.20631474	novel	6011.04456554	True	2629484.15247	562.361542973	takeaway_42	lights	False	N	1107.4207684	
0	blocked	59	search	2638344.65148	2646354.87742	8010.22593531	4	6010.99838176	True	2644360.84418	5.19431752292	clone_74	chairhole	False	Z	1305.08495553	
0	blocked	60	search	2656324.21893	2664334.38359	8010.16465878	2	6011.00049474	True	2663738.44221	1403.22278303	takeaway_4	ceilinglights	False	N	1580.99111611	
0	blocked	61	search	2689044.63376	2697054.77367	8010.13990668	novel	6010.97785563	False	0	0	color_74	fruitleft	False	Z	483.804131245	
0	blocked	62	search	2703119.06633	2711129.2663	8010.19997579	4	6010.98298716	True	2710072.23597	942.186654335	color_51	dots	False	Z	1982.33424926	
0	blocked	63	search	2719939.01808	2727949.31797	8010.29988973	4	6011.0201153	True	2726553.14199	603.10379187	clone_84	flushlever	False	N	956.486422118	
0	blocked	64	search	2758350.5778	2766360.7177	8010.13990668	novel	6010.93318112	True	2764837.57314	476.062159149	horizontal_31		False	N	888.087028363	
0	blocked	65	search	2821938.70204	2829948.99046	8010.28841925	2	6011.00502256	False	0	0	clone_59	statue	False	N	1450.0914771	
0	blocked	66	search	2837106.09412	2845116.35114	8010.25702635	4	6010.99113724	False	0	0	color_22	orange	False	Z	1034.37401803	
0	blocked	67	search	2851793.68979	2859804.8566	8011.16681674	4	6010.93559596	False	0	0	clone_22	xtra.orb.by.stair.rail	False	Z	2687.81119344	
0	blocked	68	search	2869293.43487	2877303.595	8010.16013096	2	6010.93559596	True	2875309.56508	5.19461937761	horizontal_60		False	N	1014.31606794	
0	blocked	69	search	2884087.51224	2892097.70859	8010.19635353	2	6011.00773925	False	0	0	horizontal_76		False	Z	729.083801233	
0	blocked	70	search	2899254.85209	2907265.0418	8010.18971273	4	6011.02826538	True	2906699.33842	1433.4580698	clone_70	cabnethandleright	False	Z	1283.99768055	
0	blocked	71	search	2914182.30491	2922192.46021	8010.15530128	4	6011.00109845	True	2920765.82315	572.517146108	color_18	magcolor	False	N	1476.19950309	
0	blocked	72	search	2929003.13657	2937013.27014	8010.13356773	novel	6010.96608329	True	2936893.3393	1879.23664541	color_23	bluebooks	False	Z	1174.99338183	
0	blocked	73	search	2944050.49427	2952060.7033	8010.20903144	2	6011.93413166	False	0	0	horizontal_80		False	Z	956.667836857	
0	blocked	74	search	2962456.59132	2970466.80246	8010.21114442	None	None	False	0	0	color_61	apple	False	N	1224.67385343	
0	blocked	75	search	2979942.9757	2987953.13221	8010.1565087	2	6010.9506887	True	2985959.11075	5.1843563146	takeaway_100	cabnet	False	Z	879.18231155	
0	blocked	76	search	2997242.82408	3005252.97516	8010.15107531	4	6010.92654031	True	3003846.88626	593.13564057	takeaway_39	light	False	N	1077.46711216	
0	blocked	77	search	3032122.37737	3040132.51849	8010.1411141	2	6010.91808838	True	3038675.39168	542.096218635	takeaway_41	leftdrawerhandle	False	N	1237.10031028	
0	blocked	78	search	3047956.0919	3055966.26561	8010.17371442	novel	6010.99657063	False	0	0	color_84	painting	False	Z	1194.86297452	
0	blocked	79	search	3071546.82055	3079556.95291	8010.13236031	novel	6010.94857571	True	3077978.32984	420.560719453	horizontal_62		False	Z	1171.54921848	
0	blocked	80	memory	3104280.51579	3112290.71154	8010.19574982	2	6010.97513894	True	3110676.66762	385.176695239	takeaway_12	light	False	incorrect	15252.6331549	
0	blocked	81	memory	3133349.00392	3141359.16556	8010.16164023	novel	6011.00502256	True	3140028.72179	668.712839787	clone_92	lights	False	correct	17399.2120382	
0	blocked	82	memory	3173319.93319	3181330.08668	8010.15349015	novel	6010.92895515	True	3180247.87955	917.017396798	takeaway_73	cabnethandle	False	correct	21763.2459172	
0	blocked	83	memory	3227591.75888	3235601.97244	8010.21355926	novel	6010.99596692	True	3234180.6109	577.856052083	color_85	mouse	False	incorrect	18730.0412847	
0	blocked	84	memory	3280597.46333	3288607.65878	8010.19544797	4	6010.97785563	True	3288569.40442	1960.96323076	takeaway_72	paintingwords	False	correct	22194.778757	
0	blocked	85	memory	3342066.19797	3350076.68893	8010.49096383	None	None	False	0	0	clone_38	windowtower	False	correct	11260.4318757	
0	blocked	86	memory	3374640.29894	3382650.46964	8010.17069587	2	6010.98419458	False	0	0	horizontal_8		False	incorrect	3757.82732154	
0	blocked	87	memory	3403948.7197	3411958.92994	8010.21023885	4	6011.0014003	True	3410294.12702	334.405924081	takeaway_67	lightreflection	False	correct	12992.6045572	
0	blocked	88	memory	3447651.43044	3455661.6591	8010.228652	2	6011.0294728	False	0	0	horizontal_52		False	incorrect	9872.78117851	
0	blocked	89	memory	3471735.25402	3479745.41626	8010.16224394	novel	6010.99657063	False	0	0	takeaway_31	glass.left	False	incorrect	8524.3710025	
0	blocked	90	memory	3509360.41192	3517370.60073	8010.18880716	novel	6010.95189612	True	3515417.12833	45.7645091796	color_5	applesgreen	False	incorrect	15306.0834912	
0	blocked	91	memory	3556195.18686	3564205.4774	8010.29053223	None	None	False	0	0	clone_67	lightleft	False	incorrect	6982.06771147	
0	blocked	92	memory	3578013.22305	3586023.45985	8010.23680208	novel	6011.05452675	True	3584581.70138	557.423802036	takeaway_29	dresserknob	False	incorrect	6360.91692624	
0	blocked	93	memory	3598578.43833	3606588.5882	8010.14986789	2	6010.98992982	True	3604868.34814	278.919878981	takeaway_78	floweronwallright	False	incorrect	10176.4582832	
0	blocked	94	memory	3622675.64886	3630685.76824	8010.11938056	novel	6010.91567354	False	0	0	takeaway_51	lightright	False	incorrect	5597.69968526	
0	blocked	95	memory	3676241.05974	3684251.20206	8010.14232152	novel	6010.96879999	True	3682966.898	714.869458361	clone_63	xtrafruit	False	correct	13803.5377987	
0	blocked	96	memory	3718704.22576	3726714.46678	8010.24102805	None	None	False	0	0	takeaway_80	tilesbackleft	False	incorrect	4640.72818246	
0	blocked	97	memory	3751291.41697	3759301.63325	8010.21627595	2	6011.01739861	True	3758604.71328	1302.27891324	takeaway_75	soap	False	correct	8708.39406904	
