blocknr	blocktype	trialnr	trialtype	trialstart	trialend	duration	probeNback	probeonset	probefixated	probefixtime	probeRT	imagename	imagechange	filler	response	RT	
0	mixed	0	memory	785828.971668	793839.190812	8010.21914379	4	6011.05499212	True	792083.428469	243.401809103	takeaway_92	bottlelidwindow	False	incorrect	5893.81285087	
0	mixed	1	rating	811045.963809	819056.248457	8010.28464726	2	6010.95568042	True	817588.698932	531.779442297	color_60	paper	False	3	3343.15452599	
0	mixed	2	search	828852.551405	836862.800131	8010.248726	4	6010.9046662	True	835147.162734	283.706662819	horizontal_29		False	Z	1797.81465961	
0	mixed	3	search	844926.42301	852936.668114	8010.24510369	novel	6011.06374604	True	852836.543506	1899.05675015	color_27	pillowleft	False	Z	1273.14943664	
0	mixed	4	memory	863252.691528	871263.027492	8010.33596333	2	6011.10359146	True	869542.59174	278.796619901	clone_64	xtraglass	False	correct	5389.04136136	
0	mixed	5	search	882472.065339	890482.385908	8010.32056851	4	6011.05136981	True	888772.069082	288.952373248	clone_43	butterflyright	False	Z	1601.51074528	
0	mixed	6	memory	902664.466213	910674.619552	8010.15333847	novel	6010.98375333	True	908898.402621	222.952654581	horizontal_40		False	incorrect	1809.05529519	
0	mixed	7	memory	918458.375116	926468.667008	8010.29189188	2	6011.04080473	True	924474.614843	5.19892224169	color_100	stereoright	False	correct	1518.85171525	
0	mixed	8	search	933599.30355	941609.597253	8010.29370303	4	6010.97228268	True	939615.535127	5.25929409603	fillers_1-8_15	filler	True	Z	2137.80177626	
0	mixed	9	search	949633.193291	957643.454997	8010.26170595	novel	6011.03929544	True	955649.426075	5.1934887747	takeaway_13	lightreflectionleft	False	Z	1071.717537	
0	mixed	10	memory	964254.252141	972264.539505	8010.28736399	2	6011.06767021	True	970569.334056	304.014245343	horizontal_8		False	correct	1378.25955188	
0	mixed	11	rating	979168.590516	986352.574346	7183.98383	novel	6011.1292495	True	986137.207113	957.487347569	horizontal_20		False	6	2045.05732609	
0	mixed	12	memory	993856.341248	1001866.67872	8010.33747263	2	6011.06767021	True	1000105.51249	238.103575161	takeaway_62	midwindow	False	correct	8991.94247045	
0	mixed	13	rating	1016940.86667	1024951.09427	8010.22759585	novel	6011.09906357	True	1023291.44784	339.482106084	color_75	lampchord	False	3	3355.33183088	
0	mixed	14	memory	1033921.12327	1041931.34603	8010.22276611	4	6010.98737564	True	1040474.2834	542.172758891	takeaway_60	lampsonwall	False	correct	14526.6867745	
0	mixed	15	memory	1061950.33419	1069960.65959	8010.32539826	None	None	False	0	0	takeaway_61	fanlever	False	incorrect	7225.15351053	
0	mixed	16	search	1082942.38593	1090952.65579	8010.26985615	4	6011.02450433	True	1089257.44943	304.038997803	color_23	bluebooks	False	N	2254.29500465	
0	mixed	17	rating	1124166.69605	1132177.00273	8010.30668298	novel	6010.99552584	False	0	0	horizontal_30		False	4	2488.17104071	
0	mixed	18	search	1140787.03406	1148797.3341	8010.30004208	2	6011.08306503	True	1147370.38525	572.268128309	color_77	booksleft	False	Z	1979.64713859	
0	mixed	19	memory	1156474.39992	1164484.69091	8010.2909863	None	None	False	0	0	clone_73	xtrahanging	False	incorrect	4716.07116876	
0	mixed	20	rating	1175213.93099	1183224.16432	8010.23333118	None	None	False	0	0	color_2	bookbinding	False	6	667.015716605	
0	mixed	21	memory	1189475.16936	1197485.46819	8010.29883464	4	6011.05710513	True	1196058.73276	572.506295275	takeaway_47	appleicon	False	correct	12746.823384	
0	mixed	22	rating	1215505.27831	1223515.51194	8010.23363304	4	6011.02782478	True	1221901.25821	384.952073804	horizontal_58		False	4	2804.66354464	
0	mixed	23	search	1231752.41593	1239762.73922	8010.32328524	None	None	False	0	0	fillers_1-8_12	filler	True	Z	1133.23132502	
0	mixed	24	rating	1246453.46145	1254463.80617	8010.34471725	2	6011.06857579	True	1252626.60793	162.077902633	takeaway_87	bottleshadow	False	4	1528.05842305	
0	mixed	25	memory	1265019.76907	1273030.02292	8010.25385761	4	6011.10389332	True	1271562.7656	531.892639524	horizontal_42		False	incorrect	3553.48372767	
0	mixed	26	search	1282253.19986	1290263.57325	8010.37339388	novel	6010.97258454	True	1288801.01859	536.846150178	horizontal_51		False	Z	735.929584684	
0	mixed	27	rating	1296194.55434	1304204.77801	8010.22367168	novel	6011.04171031	True	1302377.77507	172.179019452	clone_81	barsabovecouchleft	False	4	2285.23165586	
0	mixed	28	search	1311761.95468	1319772.2674	8010.31272017	2	6010.97258454	True	1317970.50624	197.578967895	horizontal_39		False	Z	994.756100727	
0	mixed	29	search	1326209.76955	1334220.07412	8010.30456997	4	6011.11536397	True	1332834.042	613.157079717	clone_24	light	False	Z	1203.01092549	
0	mixed	30	search	1340737.56204	1348747.83974	8010.27770449	novel	6011.04080473	False	0	0	color_38	bottleright	False	Z	1091.09871342	
0	mixed	31	memory	1355345.39372	1363355.64667	8010.25295203	2	6011.02118388	False	0	0	horizontal_23		False	correct	4986.85221755	
0	mixed	32	memory	1373844.99526	1381855.28112	8010.28585469	None	None	False	0	0	horizontal_16		False	correct	1087.01153887	
0	mixed	33	rating	1388239.51326	1396249.80092	8010.28766585	4	6011.06012373	True	1394620.48169	369.908313265	color_63	clock	False	2	2831.0683826	
0	mixed	34	rating	1404273.41175	1412283.64629	8010.23453862	4	6011.06585905	True	1410568.29808	283.820463765	clone_71	cupsshelf	False	5	698.375574514	
0	mixed	35	memory	1418374.37643	1426384.9895	8010.61307014	novel	6011.40484701	False	0	0	clone_74	chairhole	False	incorrect	11943.1538619	
0	mixed	36	search	1444791.32197	1452801.69476	8010.37279016	2	6011.11415654	True	1451324.21255	521.776429741	horizontal_78		False	N	793.319673195	
0	mixed	37	rating	1460238.80298	1468249.11902	8010.31604062	novel	6011.15883171	True	1466498.37509	248.413276737	clone_28	wine	False	5	966.868530024	
0	mixed	38	search	1483989.72833	1492000.00845	8010.28011937	2	6011.02299504	True	1490547.84983	547.098498492	clone_32	shelf	False	N	837.133339089	
0	mixed	39	memory	1498210.95314	1506221.23598	8010.2828361	4	6011.06072744	True	1504419.6028	197.588929251	horizontal_49		False	correct	2678.31974262	
0	mixed	40	search	1517710.23321	1525720.45024	8010.21703078	2	6010.74166219	True	1524247.735	526.760126322	takeaway_63	ovenlogo	False	Z	1836.17070987	
0	mixed	41	rating	1533117.68919	1541127.99105	8010.30185323	4	6011.07310367	True	1539346.55074	217.788446155	color_78	ovenclock	False	4	5893.74131023	
0	mixed	42	memory	1552736.87833	1560747.16056	8010.28223238	4	6011.01303368	True	1559097.47277	349.581411747	clone_89	piconshelf	False	incorrect	8622.95180937	
0	mixed	43	rating	1575794.84104	1583805.06351	8010.22246425	novel	6010.67012155	True	1581972.81395	167.302784773	clone_15	xtracupx2	False	4	1327.01079026	
0	mixed	44	memory	1590415.8839	1598426.17307	8010.28917515	novel	6011.0462382	True	1596898.20973	471.279599566	horizontal_46		False	incorrect	1717.07424712	
0	mixed	45	search	1606436.16944	1614446.68833	8010.51889005	2	6011.35322908	True	1612716.5635	269.040830089	clone_36	light	False	N	698.307354318	
0	mixed	46	rating	1620511.12925	1628521.54007	8010.41082443	2	6011.10359146	True	1626948.4367	426.203860056	horizontal_1		False	5	5468.69991023	
0	mixed	47	memory	1644262.09656	1652272.36007	8010.26351711	4	6011.11717513	True	1650521.43382	248.220086802	horizontal_3		False	incorrect	1080.93601731	
0	mixed	48	search	1659442.68809	1667453.20034	8010.51224915	None	None	False	0	0	horizontal_35		False	N	1923.17772085	
0	mixed	49	memory	1674703.83711	1681621.18955	6917.35244062	2	6011.08215945	True	1680801.0684	86.1491269325	color_86	buildingoutside	False	incorrect	16486.3034374	
0	mixed	50	search	1704239.28384	1712249.55219	8010.26834686	None	None	False	0	0	clone_84	flushlever	False	N	736.86806516	
0	mixed	51	search	1718633.78011	1726644.04392	8010.26381897	4	6011.17392467	True	1725861.48463	1216.53059857	color_34	IAcolor	False	Z	686.268602832	
0	mixed	52	rating	1736333.75493	1744344.03686	8010.28193052	2	6011.11838257	True	1742522.11934	177.246029192	clone_59	statue	False	6	2356.77713307	
0	mixed	53	rating	1760111.35075	1768121.57744	8010.22669028	None	None	False	0	0	horizontal_67		False	2	1522.88727186	
0	mixed	54	rating	1779384.02506	1787394.36465	8010.33958564	novel	6024.35732652	True	1785707.37189	298.989495901	horizontal_15		False	6	1849.98952548	
0	mixed	55	search	1796417.21298	1804427.47529	8010.26230967	None	None	False	0	0	clone_25	wine	False	Z	715.02492452	
0	mixed	56	search	1810652.14824	1818662.46368	8010.3154369	2	6011.1537001	True	1817580.03617	916.734232834	clone_49	vase	False	Z	1058.88610306	
0	mixed	57	rating	1826139.56645	1834149.84294	8010.27649706	novel	6011.03114524	True	1832489.94386	339.346269412	takeaway_72	paintingwords	False	3	1373.94236058	
0	mixed	58	search	1840947.27786	1848957.59873	8010.32087037	novel	6011.03235267	False	0	0	clone_68	platestopshelf	False	Z	603.403101061	
0	mixed	59	memory	1860126.67675	1868136.94238	8010.26563012	None	None	False	0	0	color_59	dressflowers	False	correct	6261.89340625	
0	mixed	60	rating	1880425.62912	1888435.97806	8010.34894328	novel	6011.01031695	True	1886583.56793	146.92849135	clone_87	cup	False	5	743.20409128	
0	mixed	61	rating	1894446.5531	1902457.21054	8010.65744346	None	None	False	0	0	horizontal_31		False	5	4919.10020581	
0	mixed	62	search	1912746.63533	1920756.91937	8010.28404354	None	None	False	0	0	color_43	purpleright	False	Z	963.257085694	
0	mixed	63	search	1927874.19683	1935884.49627	8010.29943836	None	None	False	0	0	clone_99	light	False	Z	731.409242086	
0	mixed	64	memory	1943881.4822	1951891.743	8010.26080037	2	6011.02752292	True	1950642.23126	749.721534821	clone_22	xtra.orb.by.stair.rail	False	correct	5092.11537544	
0	mixed	65	memory	1962820.97874	1970830.91111	8009.93237749	2	6010.99824257	True	1969049.72316	217.746185857	horizontal_41		False	incorrect	2379.76733895	
0	mixed	66	search	1980627.47668	1988637.71937	8010.24268882	4	6011.04140845	False	0	0	color_48	lightorbs	False	Z	969.543305033	
0	mixed	67	memory	1994808.72234	2001739.45289	6930.7305417	4	6011.09966729	True	2001346.63104	526.809027524	color_55	flowerleft	False	incorrect	5415.11958759	
0	mixed	68	memory	2013481.70552	2021491.94126	8010.23574605	4	6010.98345147	True	2019862.61026	369.921293214	clone_37	xtraknob	False	correct	5955.09903701	
0	mixed	69	search	2033420.77311	2041430.99588	8010.22276611	novel	6010.98013102	True	2039999.03164	567.278394543	clone_96	NtoMinPoster	False	N	759.726962251	
0	mixed	70	rating	2047575.34649	2055585.63174	8010.28525097	4	6011.04835121	True	2054017.68926	431.294414819	color_99	thermlid	False	4	2679.5169165	
0	mixed	71	search	2066314.93974	2074325.16462	8010.22487912	4	6010.99703514	True	2072629.932	303.995228208	fillers_1-8_1	filler	True	N	617.181165672	
0	mixed	72	memory	2080416.23224	2088426.44233	8010.21008802	2	6011.00005373	True	2086488.06298	60.8306804933	takeaway_79	cabnetcrack	False	correct	2289.79576805	
0	mixed	73	rating	2099408.96679	2107419.22789	8010.26110223	novel	6011.00699649	True	2105784.96843	364.994648035	takeaway_45	midspeaker	False	6	2074.75816544	
0	mixed	74	rating	2143512.19421	2151522.60564	8010.41142815	4	6011.15551126	False	0	0	takeaway_34	flowersleft	False	5	1074.98818221	
0	mixed	75	search	2159306.23955	2167316.47983	8010.24027394	novel	6011.01635413	True	2166137.79242	820.536512596	takeaway_4	ceilinglights	False	Z	729.026968711	
0	mixed	76	memory	2173540.78662	2181551.02539	8010.23876465	novel	6011.02390061	True	2179881.0762	329.265679023	clone_82	rug	False	incorrect	3636.14305956	
0	mixed	77	rating	2196252.08147	2204262.40385	8010.32237966	None	None	False	0	0	color_29	cupright	False	4	1326.43544649	
0	mixed	78	search	2211806.22355	2219816.52541	8010.30185323	novel	6011.05046423	False	0	0	clone_38	windowtower	False	N	740.126636002	
0	mixed	79	search	2232838.28131	2240848.21369	8009.93237749	novel	6011.00277046	True	2239330.53741	481.253331772	horizontal_47		False	N	491.921038444	
0	mixed	80	rating	2246646.3453	2254656.58829	8010.24299068	2	6011.02510805	True	2253143.85556	486.485156674	clone_41	knobsleftcab	False	6	1507.73152153	
0	mixed	81	memory	2261520.66921	2269530.90194	8010.23272746	4	6011.04442704	True	2268043.51	511.79635849	takeaway_27	reflection	False	correct	1466.00792924	
0	mixed	82	rating	2277461.24519	2285471.5226	8010.27740263	novel	6011.03446569	True	2283477.40644	5.1267778757	clone_60	xtralight	False	4	3255.00709067	
0	mixed	83	rating	2296294.12232	2304304.3804	8010.25808364	4	6011.078839	True	2302361.02641	55.8252500454	horizontal_4		False	6	547.397339171	
0	mixed	84	rating	2313767.47569	2321777.78026	8010.30456997	novel	6011.07582041	True	2320396.55645	618.004939626	takeaway_74	sprinkler	False	5	1113.77438193	
0	mixed	85	search	2328308.61277	2336318.88263	8010.26985615	4	6010.99552584	True	2334836.58909	516.980791487	horizontal_26		False	N	860.438987902	
0	mixed	86	rating	2345395.46191	2353405.72905	8010.26713942	2	6011.00367604	True	2351558.54953	152.083945856	takeaway_44	lightorangeright	False	4	1512.06923927	
0	mixed	87	memory	2367666.97587	2375677.25991	8010.28404354	2	6011.0640479	True	2373890.85704	212.817125805	horizontal_44		False	correct	1297.29636724	
0	mixed	88	memory	2384207.34985	2392217.57352	8010.22367168	2	6011.06072744	True	2390416.01037	197.599796185	clone_80	statue	False	incorrect	5831.28723057	
0	mixed	89	memory	2405212.69668	2413222.96382	8010.26713942	None	None	False	0	0	horizontal_48		False	incorrect	4175.16833182	
0	mixed	90	memory	2426844.42505	2434854.77067	8010.34562283	novel	6011.09181895	True	2433169.69804	314.181167483	takeaway_55	vase	False	incorrect	2014.36548275	
0	mixed	91	memory	2442838.42499	2450848.67976	8010.25476319	4	6010.97650871	True	2449118.40188	269.000380946	clone_67	lightleft	False	incorrect	2759.56456196	
0	mixed	92	search	2460338.4253	2468348.71538	8010.29008072	2	6010.97469755	False	0	0	fillers_1-8_5	filler	True	N	1533.00317979	
0	mixed	93	memory	2475612.61766	2483622.92766	8010.31000344	4	6011.09151709	True	2481983.33465	359.625477164	horizontal_74		False	correct	1488.99662582	
0	mixed	94	search	2492832.73676	2500842.98699	8010.2502353	novel	6011.00246861	True	2499086.91525	243.176018368	takeaway_69	whitespotonorange	False	N	534.520626346	
0	mixed	95	rating	2506854.10598	2514864.36376	8010.25778178	None	None	False	0	0	horizontal_62		False	5	579.558935306	
0	mixed	96	memory	2520822.10528	2528832.41015	8010.30487183	None	None	False	0	0	clone_10	vase	False	correct	10894.9321451	
0	mixed	97	rating	2554689.21626	2562699.50785	8010.29159002	4	6011.05016237	True	2560776.3582	76.0917797075	takeaway_96	jarlid	False	5	653.300438723	
0	mixed	98	memory	2568910.50356	2576920.76828	8010.26472454	2	6011.06495347	True	2574926.76019	5.19167761924	clone_2	statueright	False	correct	4515.21038686	
0	mixed	99	memory	2587290.12751	2595300.40884	8010.2813268	4	6011.07763156	True	2593483.63651	182.431367767	takeaway_25	plugin	False	correct	4124.87223806	
0	mixed	100	rating	2606549.14178	2614559.74942	8010.60763668	4	6011.38009455	True	2612565.65198	5.13009832753	takeaway_97	knife	False	5	1408.4231415	
0	mixed	101	rating	2632899.5515	2640909.51044	8009.9589411	2	6010.76671651	True	2639275.34063	365.022419089	clone_16	topbookself	False	4	2284.98926287	
0	mixed	102	rating	2649559.52574	2657570.12523	8010.59948648	2	6011.3686239	True	2655778.67074	207.776377821	color_37	redtogreenright	False	4	2325.2865701	
0	mixed	103	search	2667286.41887	2675296.73551	8010.31664434	4	6011.08306503	True	2673849.56722	552.065290953	takeaway_83	soap	False	Z	884.125281258	
