blocknr	blocktype	trialnr	trialtype	trialstart	trialend	duration	probeNback	probeonset	probefixated	probefixtime	probeRT	imagename	imagechange	filler	response	RT	
0	blocked	0	search	96982.3155745	104992.97664	8010.66106577	4	6013.06235628	True	103421.197524	425.819593202	takeaway_16	pillow	False	Z	4667.83677382	
0	blocked	1	search	121533.361789	129543.605383	8010.2435944	None	None	False	0	0	clone_57	xtrabushes	False	Z	4828.81409755	
0	blocked	2	search	146217.329318	154227.565668	8010.23634977	2	6010.96292504	True	154142.347173	1914.05492994	takeaway_67	lightreflection	False	N	1960.62879701	
0	blocked	3	search	165969.437352	173980.024463	8010.58711025	None	None	False	0	0	clone_98	wine	False	Z	711.923924219	
0	blocked	4	search	181217.38637	189227.560235	8010.1738649	novel	6010.90436434	True	187501.989856	273.699122374	takeaway_30	shotglass	False	Z	568.218082457	
0	blocked	5	search	196038.345787	204048.58908	8010.24329254	novel	6010.956586	True	202322.907013	273.604640422	takeaway_56	chairstar	False	N	827.034939003	
0	blocked	6	search	212725.329796	220735.656704	8010.32690755	2	6010.98948866	True	218903.541473	167.222188347	clone_77	drawer	False	N	763.828927898	
0	blocked	7	search	228212.815918	236223.061626	8010.24570741	None	None	False	0	0	takeaway_19	headboard	False	Z	1340.1483095	
0	blocked	8	search	244353.362803	252363.350421	8009.98761773	4	6011.02510805	True	250952.206923	587.819012425	horizontal_58		False	N	1167.77942056	
0	blocked	9	search	260067.269942	268077.55308	8010.28313796	2	6011.07280182	True	266240.543504	162.200759357	horizontal_36		False	N	869.275314371	
0	blocked	10	search	276954.221834	284964.555081	8010.3332466	4	6011.05529398	True	283152.758299	187.481171528	fillers_1-8_14	filler	True	Z	1035.51434707	
0	blocked	11	search	292175.099508	300185.401965	8010.30245695	None	None	False	0	0	color_1	oranges	False	Z	521.16335356	
0	blocked	12	search	331200.227179	339210.500054	8010.27287474	4	6011.04865307	True	338128.398256	917.122423858	clone_26	statue	False	N	951.4866871	
0	blocked	13	search	347500.776986	355510.977112	8010.20012666	4	6010.95809529	True	353689.297157	177.56207585	color_21	checkers	False	Z	1066.71512514	
0	blocked	14	search	363921.160999	371931.384369	8010.22336982	4	6011.06827393	False	0	0	clone_91	platesonwall	False	N	558.218994072	
0	blocked	15	search	383167.176909	391177.45884	8010.28193052	4	6011.12592905	False	0	0	fillers_1-8_7	filler	True	N	1565.39901872	
0	blocked	16	search	401586.840687	409597.16699	8010.32630384	2	6011.13045694	True	408403.499515	805.528371451	fillers_1-8_15	filler	True	Z	564.138152537	
0	blocked	17	search	417660.740666	425671.051273	8010.31060715	novel	6011.02148574	True	424492.340019	820.577867316	color_39	painting	False	N	1042.03148875	
0	blocked	18	search	433508.040324	441518.309878	8010.26955429	4	6011.0706888	False	0	0	horizontal_79		False	Z	639.927469254	
0	blocked	19	search	448022.564282	456032.832629	8010.26834686	4	6011.03114524	False	0	0	takeaway_8	ventonfireplace	False	N	719.927119097	
0	blocked	20	search	464029.832752	472040.038312	8010.20556013	novel	6010.97107524	False	0	0	takeaway_78	floweronwallright	False	Z	936.492733342	
0	blocked	21	search	480103.635231	488113.885768	8010.25053716	novel	6011.05378468	True	486408.490758	293.801742453	clone_40	xtradoorknob	False	Z	758.432287834	
0	blocked	22	search	496164.209633	504174.437229	8010.22759585	4	6011.02118388	True	502555.380008	380.149190927	horizontal_12		False	Z	1025.6981854	
0	blocked	23	search	512358.086297	520368.382113	8010.29581605	None	None	False	0	0	color_54	booktable	False	N	767.666162964	
0	blocked	24	search	532030.20917	540040.843974	8010.63480401	novel	6011.43231621	True	538837.167449	795.525962614	clone_49	vase	False	N	862.893707502	
0	blocked	25	search	550876.694713	558886.984794	8010.29008072	2	6011.03174895	True	557510.93606	623.209597193	color_69	pillow	False	Z	880.516251801	
0	blocked	26	search	567377.076565	575387.07988	8010.00331441	4	6011.10147845	False	0	0	color_38	bottleright	False	Z	371.935298276	
0	blocked	27	search	581411.804871	589422.074727	8010.26985615	novel	6011.01303368	True	587914.196804	491.378899192	takeaway_21	bear	False	Z	617.053781059	
0	blocked	28	search	596366.075002	604376.37927	8010.30426811	novel	6011.03597498	True	603060.808041	683.697063694	color_89	garlic	False	N	894.654434524	
0	blocked	29	search	612959.796571	620970.035034	8010.23846279	4	6011.14011643	True	619695.102213	724.165525136	color_33	chairmiddle	False	Z	852.660678181	
0	blocked	30	search	628833.71267	636844.090893	8010.37822363	2	6011.11325096	True	635032.382859	187.556938205	fillers_1-8_3	filler	True	N	1391.92834344	
0	blocked	31	search	648093.104266	656103.4354	8010.33113358	None	None	False	0	0	color_58	peppers	False	N	967.016139208	
0	blocked	32	search	666099.589713	674109.909678	8010.31996479	novel	6011.01454298	False	0	0	color_16	flowersleft	False	Z	848.3736728	
0	blocked	33	search	681613.702539	689624.03156	8010.32902057	2	6011.03899358	True	687863.193756	238.45222262	clone_18	wine	False	N	758.054661884	
0	blocked	34	search	700419.954769	708430.212249	8010.25747992	2	6010.96624549	True	706436.093977	5.17296234425	color_74	fruitleft	False	Z	1031.66020788	
0	blocked	35	search	716027.28023	724037.624343	8010.34411353	2	6011.09242267	False	0	0	horizontal_50		False	Z	720.02552522	
0	blocked	36	search	732527.700418	740537.86251	8010.16209239	2	6011.05529398	True	738792.131253	253.375541309	clone_76	window	False	N	619.356061727	
0	blocked	37	search	747348.731376	755359.006968	8010.27559148	novel	6011.01152438	False	0	0	horizontal_20		False	Z	1523.63829773	
0	blocked	38	search	764048.677524	772059.294519	8010.61699431	2	6011.42899576	True	770764.599575	704.49305452	clone_20	chair	False	N	673.760158319	
0	blocked	39	search	779376.553443	787386.848957	8010.29551419	None	None	False	0	0	fillers_1-8_12	filler	True	Z	879.470007565	
0	blocked	40	rating	793970.981061	801981.237635	8010.25657434	novel	6011.06434976	True	800458.380851	476.335440512	takeaway_22	lightleft	False	4	1338.15875504	
0	blocked	41	rating	809125.204585	817135.478969	8010.27438404	2	6011.03537127	True	815187.018421	50.7784648766	color_23	bluebooks	False	6	911.7309154	
0	blocked	42	rating	823839.624584	831849.916476	8010.29189188	None	None	False	0	0	clone_29	topshelf	False	4	989.175628365	
0	blocked	43	rating	840113.408528	848123.737549	8010.32902057	4	6011.11687327	True	846362.934459	238.409056744	color_70	tomato	False	7	395.147672575	
0	blocked	44	rating	855867.478044	863877.735826	8010.25778178	4	6010.97711243	True	862055.851512	177.39635511	clone_34	xtrafruit	False	6	2795.64851748	
0	blocked	45	rating	874700.303248	882710.590914	8010.28766585	2	6011.00518534	True	881060.868111	349.55967788	horizontal_54		False	7	639.909357698	
0	blocked	46	rating	889641.254443	897651.561427	8010.30698484	None	None	False	0	0	takeaway_96	jarlid	False	5	1608.07799561	
0	blocked	47	rating	907647.789998	915658.083399	8010.29340118	4	6011.04291775	True	913846.370837	187.537921071	color_29	cupright	False	7	681.43493031	
0	blocked	48	rating	922415.461896	930425.751373	8010.289477	2	6011.07370739	True	928431.714301	5.17869767046	color_85	mouse	False	6	1180.18794966	
0	blocked	49	rating	939062.109658	946846.233189	7784.12353047	None	None	False	0	0	clone_95	light	False	3	1356.8139599	
0	blocked	50	rating	954283.349865	955536.248167	1252.8983018	novel	None	False	0	0	horizontal_7		False	6	1026.81717772	
0	blocked	51	rating	965878.952319	970090.80923	4211.85691146	2	None	False	0	0	color_47	potonshelf	False	4	1050.8020099	
0	blocked	52	rating	977474.503457	981113.19602	3638.69256297	2	None	False	0	0	takeaway_11	lightleft	False	7	1436.15163236	
0	blocked	53	rating	989869.909521	997880.064972	8010.15545149	4	6010.94571906	True	996058.310156	177.454915808	horizontal_17		False	4	1501.02451037	
0	blocked	54	rating	1005117.36198	1007689.78707	2572.42509513	novel	None	False	0	0	horizontal_6		False	6	469.970435903	
0	blocked	55	rating	1015553.40766	1023563.66997	8010.26230967	novel	6011.04321961	True	1021858.33201	293.881131441	color_60	paper	False	2	1161.26891978	
0	blocked	56	rating	1031813.89621	1038517.94553	6704.04932139	4	6011.02058016	True	1038032.66178	207.744984457	color_66	painting	False	4	1446.69527488	
0	blocked	57	rating	1048767.45848	1056071.32482	7303.8663343	4	6011.0121281	True	1054971.06166	192.591045284	color_97	vase	False	7	1317.18104493	
0	blocked	58	rating	1063828.37972	1071838.64897	8010.26925243	4	6011.0610293	True	1070234.79761	395.35686105	clone_8	teapotsright	False	6	1789.62672686	
0	blocked	59	rating	1082967.75086	1090978.0343	8010.28343982	2	6011.0395973	True	1089227.10895	248.318492925	horizontal_10		False	6	1146.05340132	
0	blocked	60	rating	1098375.24066	1104759.45136	6384.21070743	novel	6011.02239132	True	1104462.34124	76.0781960408	color_87	picframe	False	6	857.745195759	
0	blocked	61	rating	1111943.3063	1119953.72135	8010.41505046	novel	6011.14132387	True	1118273.64026	319.192635117	color_100	stereoright	False	5	650.053338533	
0	blocked	62	rating	1126937.73458	1134947.97606	8010.24148138	None	None	False	0	0	clone_39	xtraspots	False	1	1031.59651558	
0	blocked	63	rating	1142345.1628	1145210.79799	2865.63519341	2	None	False	0	0	horizontal_37		False	7	576.717533979	
0	blocked	64	rating	1153074.39231	1161084.75605	8010.36373439	4	6011.08004644	True	1159353.97709	268.504728022	horizontal_33		False	4	974.565337741	
0	blocked	65	rating	1169481.54372	1175065.6882	5584.14447951	4	None	False	0	0	horizontal_22		False	5	1105.04944153	
0	blocked	66	rating	1184542.49997	1192552.75655	8010.25657434	2	6011.00639278	True	1190791.78351	238.277144242	takeaway_13	lightreflectionleft	False	7	927.417636188	
0	blocked	67	rating	1200762.97527	1208773.28648	8010.31121087	2	6011.04321961	False	0	0	color_57	shampoo	False	7	557.464044033	
0	blocked	68	rating	1260420.35564	1268430.5784	8010.22276611	novel	6010.94722836	True	1267201.26799	769.96512318	horizontal_27		False	3	1264.77857717	
0	blocked	69	rating	1276494.21457	1283158.32821	6664.11364156	None	None	False	0	0	horizontal_34		False	2	520.891378356	
0	blocked	70	rating	1291421.86071	1299432.05691	8010.19620249	2	6011.02088202	True	1297605.13638	172.25478613	horizontal_8		False	6	1094.91300718	
0	blocked	71	rating	1305936.31856	1312627.10056	6690.78200267	novel	6011.03748428	True	1312337.37362	390.017574247	clone_37	xtraknob	False	5	838.457897574	
0	blocked	72	rating	1319811.01859	1327821.3307	8010.31211645	novel	6011.09332825	True	1326019.73707	197.625152363	clone_24	light	False	7	673.450752565	
0	blocked	73	rating	1335151.86027	1343162.15639	8010.29611791	2	6011.09363011	True	1341512.47554	349.521643612	horizontal_52		False	7	1303.0377306	
0	blocked	74	rating	1351092.47791	1359102.7861	8010.30819228	novel	6011.04593634	True	1357362.09408	258.570237521	takeaway_6	lightsonright	False	5	1146.24991171	
0	blocked	75	rating	1365913.45393	1373923.76363	8010.30970158	None	None	False	0	0	color_67	lightleft	False	7	690.426714304	
0	blocked	76	rating	1381161.04554	1383626.74497	2465.69942906	None	None	False	0	0	takeaway_46	outletbydoor	False	7	752.624515441	
0	blocked	77	rating	1389851.05328	1397861.36539	8010.31211645	2	6011.05650141	True	1396034.33227	172.222487187	horizontal_11		False	7	939.190449656	
0	blocked	78	rating	1405205.23865	1413215.51273	8010.27408218	4	6011.07340553	True	1411728.19535	511.883293961	takeaway_85	switchleftdoor	False	5	966.205647063	
0	blocked	79	rating	1423011.80481	1431022.07587	8010.27106359	None	None	False	0	0	clone_58	xtrapillow	False	5	1274.06316466	
0	blocked	80	memory	1438779.13531	1446789.42176	8010.28645841	novel	6011.0610293	True	1445033.47136	243.275028209	color_37	redtogreenright	False	correct	12069.0874372	
0	blocked	81	memory	1465102.47156	1473112.77372	8010.30215509	None	None	False	0	0	clone_41	knobsleftcab	False	correct	1908.22632925	
0	blocked	82	memory	1481562.89419	1489573.16978	8010.27559148	2	6011.00126117	True	1487837.45935	263.563895457	horizontal_72		False	incorrect	7714.26212614	
0	blocked	83	memory	1503314.5769	1511324.92494	8010.3480377	novel	6011.05318096	True	1509619.72705	294.09696082	clone_71	cupsshelf	False	incorrect	4871.58061363	
0	blocked	84	memory	1522027.51236	1530037.7801	8010.26774314	novel	6011.02722107	True	1528322.34193	283.802352208	color_42	cups	False	correct	11118.42875	
0	blocked	85	memory	1547631.07213	1555641.36341	8010.29128816	4	6011.06012373	True	1554356.36691	714.234656946	color_34	IAcolor	False	correct	10010.5321719	
0	blocked	86	memory	1572195.04607	1580205.37358	8010.32751127	novel	6011.01061881	True	1578449.35103	243.294347202	color_10	lighttent	False	incorrect	10323.6227218	
0	blocked	87	memory	1596745.78197	1604756.06028	8010.27830821	None	None	False	0	0	takeaway_54	phonebutton	False	correct	6535.35949326	
0	blocked	88	memory	1619017.30137	1627027.59869	8010.29732535	None	None	False	0	0	color_3	lights	False	correct	8959.35827134	
0	blocked	89	memory	1642928.1258	1650938.44727	8010.32147409	novel	6011.08366875	True	1649268.45039	329.240926563	clone_30	lightonright	False	correct	12760.3475849	
0	blocked	90	memory	1670411.08162	1678421.34242	8010.26080037	novel	6011.01001509	False	0	0	takeaway_84	outlet	False	correct	11533.1903325	
0	blocked	91	memory	1695641.49502	1703651.82072	8010.32570012	None	None	False	0	0	takeaway_63	ovenlogo	False	incorrect	2886.52445875	
0	blocked	92	memory	1711968.60301	1719978.84117	8010.23816093	None	None	False	0	0	color_44	wholepic	False	correct	1367.1991263	
0	blocked	93	memory	1726949.65168	1734959.83762	8010.18593927	2	6010.9469265	False	0	0	clone_31	vase	False	incorrect	2916.7915861	
0	blocked	94	memory	1743516.59532	1751526.88328	8010.28796771	2	6011.04925679	True	1749730.42005	202.775475262	horizontal_80		False	incorrect	6741.48107856	
0	blocked	95	memory	1765574.92358	1773585.16054	8010.23695349	4	6011.02933408	True	1771591.13403	5.18111254438	color_51	dots	False	correct	9311.21902245	
0	blocked	96	memory	1792098.14169	1800108.39042	8010.248726	4	6011.00186489	True	1798357.51639	248.372827594	color_71	ventreflection	False	correct	1499.22874956	
0	blocked	97	memory	1808918.30903	1816929.03198	8010.72294692	None	None	False	0	0	horizontal_75		False	correct	2422.78500194	
0	blocked	98	memory	1826751.65917	1834761.83786	8010.17869465	2	6011.05861443	True	1833269.31673	506.598945545	clone_1	knobonoven	False	incorrect	6783.75284729	
0	blocked	99	memory	1848143.4556	1856153.74961	8010.29400489	4	6011.0395973	True	1854544.40048	389.905282597	horizontal_81		False	correct	2215.90393872	
0	blocked	100	memory	1866376.54227	1874386.86375	8010.32147409	None	None	False	0	0	color_9	chairs	False	correct	7337.05032779	
0	blocked	101	memory	1889114.64615	1897124.8991	8010.25295203	2	6010.97741429	True	1895363.74435	238.120781139	horizontal_45		False	incorrect	2884.15667462	
0	blocked	102	memory	1908906.99595	1916917.34369	8010.34773584	2	6011.10208216	True	1915105.4817	187.383670983	clone_36	light	False	correct	11011.5053662	
0	blocked	103	memory	1935070.45456	1943080.77965	8010.3250964	2	6011.03084338	True	1942600.8219	1519.33650125	takeaway_66	spottopleft	False	incorrect	927.934117402	
0	blocked	104	memory	1952037.27449	1960047.61951	8010.34501911	novel	6011.14222945	True	1959000.47694	952.060219717	color_27	pillowleft	False	correct	1414.02293285	
0	blocked	105	memory	1969417.36723	1977427.70863	8010.3413968	2	6011.11687327	True	1975621.03138	192.54727569	color_49	spacepink	False	incorrect	8697.84369848	
0	blocked	106	memory	1993488.26643	2001498.58187	8010.3154369	None	None	False	0	0	clone_93	leftcrack	False	incorrect	4504.15207429	
0	blocked	107	memory	2013147.45735	2021157.77882	8010.32147409	None	None	False	0	0	clone_43	butterflyright	False	incorrect	8249.83624134	
0	blocked	108	memory	2036831.83058	2044842.12005	8010.289477	2	6011.038088	True	2043060.76125	217.892587604	clone_44	pillow	False	correct	1834.58504311	
0	blocked	109	memory	2053465.47002	2061475.85941	8010.38939242	4	6011.1684912	True	2059654.01162	177.373111946	clone_63	xtrafruit	False	correct	6865.30405379	
0	blocked	110	memory	2076710.00712	2084720.3292	8010.32207781	novel	6011.0721981	True	2083065.56323	344.483914221	takeaway_5	thermostat	False	incorrect	2558.89878115	
0	blocked	111	memory	2096036.01121	2104046.31759	8010.30638112	4	6011.07310367	True	2102340.95156	293.867245914	horizontal_46		False	correct	3237.99369839	
0	blocked	112	memory	2115761.88707	2123772.15813	8010.27106359	2	6011.04593634	True	2122011.12019	238.187190179	horizontal_16		False	correct	4778.58109238	
0	blocked	113	memory	2136447.37235	2144457.63888	8010.2665357	4	6011.00850579	True	2142706.60245	248.221596099	takeaway_47	appleicon	False	correct	8178.12836384	
0	blocked	114	memory	2160398.27161	2168408.53423	8010.26261153	4	6011.07159438	True	2166703.11537	293.772160244	color_2	bookbinding	False	correct	7245.66514992	
0	blocked	115	memory	2186015.22065	2194025.47722	8010.25657434	None	None	False	0	0	clone_88	lightright	False	correct	2855.03631065	
0	blocked	116	memory	2208486.67563	2216496.99892	8010.32328524	2	6011.09242267	True	2214680.20425	182.436197515	color_56	book	False	incorrect	7156.52097529	
0	blocked	117	memory	2232250.99749	2240261.27067	8010.2731766	4	6024.36577858	True	2238457.78438	182.421104551	color_64	flowers	False	correct	3197.512257	
0	blocked	118	memory	2251070.53364	2259080.80652	8010.27287474	4	6024.33951682	True	2257292.52941	197.656243869	clone_60	xtralight	False	incorrect	8957.85531402	
