blocknr	blocktype	trialnr	trialtype	trialstart	trialend	duration	probeNback	probeonset	probefixated	probefixtime	probeRT	imagename	imagechange	filler	response	RT	
0	blocked	0	rating	60436.1060516	68446.353872	8010.24782043	2	6011.41843068	True	66640.0056508	192.481168509	takeaway_46	outletbydoor	False	6	11365.7689171	
0	blocked	1	rating	86479.564731	94489.7917231	8010.22699214	4	6011.04593634	True	92723.6907005	233.080033156	takeaway_89	vent	False	3	2407.86077767	
0	blocked	2	rating	103406.423928	111416.719442	8010.29551419	novel	6024.38570129	True	109780.429679	349.620049734	horizontal_48		False	5	2021.48181509	
0	blocked	3	rating	119520.191669	127530.853942	8010.66227321	4	6051.91768177	True	125754.550378	182.441027263	color_45	flowers	False	2	1483.61839917	
0	blocked	4	rating	135687.546373	143698.227965	8010.6815922	2	6051.72630299	True	141926.736944	187.464267409	color_76	exit	False	5	1008.37478364	
0	blocked	5	rating	152241.900965	160251.590647	8009.68968263	None	None	False	0	0	horizontal_15		False	1	1213.19505361	
0	blocked	6	rating	167981.845882	175992.996865	8011.15098337	4	6051.16061871	True	174342.186161	309.179661205	horizontal_10		False	4	1248.29736278	
0	blocked	7	rating	184855.428426	192866.141713	8010.71328742	2	6051.77701535	True	191104.715585	197.510143981	color_90	bookleft	False	3	1191.24716781	
0	blocked	8	rating	202302.865067	210312.568333	8009.7032663	2	6037.56004736	False	0	0	color_52	orange	False	2	1620.04611202	
0	blocked	9	rating	218712.191975	226721.659489	8009.46751421	4	6048.51693521	True	225018.966422	258.257511315	takeaway_37	outletbyflower	False	5	2371.44839927	
0	blocked	10	rating	236076.322702	244087.028745	8010.7060428	4	6050.75371242	True	242476.581758	349.505343211	color_10	lighttent	False	6	812.15901222	
0	blocked	11	rating	253323.565369	261334.265978	8010.70060933	2	6037.77527302	True	259366.48372	5.14307827633	horizontal_54		False	5	1274.80513475	
0	blocked	12	rating	270104.921151	278113.682919	8008.76176723	2	6035.8654094	True	276267.539986	126.753425046	takeaway_32	ceilingfan	False	2	492.752962598	
0	blocked	13	rating	285537.200231	293548.881581	8011.68135011	None	None	False	0	0	clone_79	midcouch	False	5	1107.7637601	
0	blocked	14	rating	301664.57126	309675.251947	8010.68068662	4	6051.68675943	True	307822.635038	106.377018608	horizontal_81		False	2	802.076006957	
0	blocked	15	rating	317045.140639	325055.513731	8010.37309202	novel	6041.6390717	True	323299.584461	212.804749575	takeaway_18	hanginglightright	False	6	879.26474326	
0	blocked	16	rating	332639.26519	340650.910317	8011.645127	novel	6051.6891743	True	338888.566235	197.611870555	takeaway_95	drawerknob	False	2	809.143739952	
0	blocked	17	rating	348940.621263	356950.334188	8009.7129258	4	6050.75220312	True	355239.579667	248.206201276	color_28	vase	False	6	603.67688742	
0	blocked	18	rating	364840.905976	372850.635202	8009.7292262	None	None	False	0	0	color_24	potsleft	False	6	4307.41378446	
0	blocked	19	rating	382700.280005	390711.896153	8011.61614851	2	6051.64419727	True	388757.059432	5.13522993529	horizontal_57		False	1	1266.51155125	
0	blocked	20	rating	398827.50433	406838.22607	8010.72173948	novel	6050.88743607	True	405070.938438	192.546671971	color_33	chairmiddle	False	5	5057.41212424	
0	blocked	21	rating	419059.743987	427070.294271	8010.55028342	2	6051.59046632	True	425298.805362	187.470908313	takeaway_62	midwindow	False	3	665.150528163	
0	blocked	22	rating	435440.777324	443451.517477	8010.7401529	novel	6052.01156	True	441913.115544	420.32666003	color_26	flowerleftchair	False	7	730.937436044	
0	blocked	23	rating	450074.617197	458084.977611	8010.36041393	2	6051.37312764	True	456379.298853	253.308528551	clone_33	pillow	False	3	893.14664746	
0	blocked	24	rating	466108.513277	474121.297621	8012.78434389	None	None	False	0	0	takeaway_38	reflectionlight	False	2	558.273026882	
0	blocked	25	rating	480543.031549	488554.787458	8011.75590935	novel	6037.89812974	True	486965.940615	385.010936361	horizontal_77		False	5	2196.26799308	
0	blocked	26	rating	497057.384655	505067.134408	8009.74975263	4	6040.78179137	True	503478.004722	379.838275876	clone_84	flushlever	False	3	528.171922137	
0	blocked	27	rating	512864.060394	520876.330369	8012.26997569	4	6053.30110281	True	519398.498009	481.136512233	takeaway_21	bear	False	2	816.626529445	
0	blocked	28	rating	529138.002815	537148.710668	8010.70785396	None	None	False	0	0	takeaway_60	lampsonwall	False	4	1784.20110831	
0	blocked	29	rating	544532.021533	552542.930124	8010.90859037	novel	6051.14582761	True	550993.390188	410.222826477	horizontal_68		False	2	1965.89654317	
0	blocked	30	rating	563631.424697	571643.71037	8012.28567237	None	None	False	0	0	horizontal_70		False	5	616.149108821	
0	blocked	31	rating	580025.870245	588035.593132	8009.72288715	2	6037.81964633	True	586230.855028	167.165136944	clone_75	plates	False	3	830.737544834	
0	blocked	32	rating	597459.134895	605468.865329	8009.73043363	4	6050.73077111	True	603793.569613	283.703946086	horizontal_11		False	6	830.718527699	
0	blocked	33	rating	612812.662212	620823.252642	8010.5904307	2	6051.61340762	True	619107.459486	243.183866709	clone_49	vase	False	5	1031.70035517	
0	blocked	34	rating	629713.783075	637723.526791	8009.74371544	4	6050.73801573	True	635967.337317	202.816226264	horizontal_23		False	1	383.64743803	
0	blocked	35	rating	649705.868024	657716.574368	8010.70634466	novel	6052.68983779	True	655996.558804	238.000943008	color_25	hangingcandle	False	2	1375.33544112	
0	blocked	36	rating	666832.108288	674844.862748	8012.75445982	None	None	False	0	0	clone_59	statue	False	5	868.269821136	
0	blocked	37	rating	682213.565737	690224.168242	8010.60250507	novel	6050.64142077	True	688654.007091	389.799933712	clone_9	bookshelf	False	2	418.905204718	
0	blocked	38	rating	697700.939567	705711.6278	8010.6882331	novel	6024.64711142	True	703933.361849	207.775170384	takeaway_99	blockoncushion	False	6	769.210475	
0	blocked	39	rating	714362.202752	722371.966088	8009.76333629	novel	6049.782933	True	721222.195893	810.21020876	horizontal_43		False	2	361.20691789	
0	blocked	40	search	729674.601138	737685.309596	8010.70845767	4	6051.72781229	True	735908.680024	182.3510732	takeaway_12	light	False	Z	3131.21581066	
0	blocked	41	search	748134.716171	756147.351396	8012.63522541	None	None	False	0	0	takeaway_35	birdhouse	False	N	1008.94197721	
0	blocked	42	search	762529.133948	770539.850254	8010.71630602	novel	6051.74290525	True	768834.272619	253.39576588	takeaway_33		False	N	867.096494146	
0	blocked	43	search	778216.548106	786227.25596	8010.70785396	4	6051.71875651	True	784612.600451	344.333588304	clone_64	xtraglass	False	Z	884.386389528	
0	blocked	44	search	792970.890805	800982.512689	8011.62188383	novel	6051.69007988	True	799382.214814	359.633929224	horizontal_71		False	Z	662.178421771	
0	blocked	45	search	808898.273425	816910.906236	8012.63281053	None	None	False	0	0	horizontal_19		False	Z	1758.13888062	
0	blocked	46	search	825612.489669	833622.223725	8009.73405594	2	6050.7515994	True	831987.274217	324.032948543	takeaway_56	chairstar	False	N	656.084788647	
0	blocked	47	search	841526.700358	849538.382614	8011.68225569	None	None	False	0	0	horizontal_18		False	N	450.086663797	
0	blocked	48	search	856520.263511	864530.703616	8010.44010478	4	6037.55551947	True	862877.063585	319.244554912	horizontal_69		False	N	371.178235222	
0	blocked	49	search	871807.562903	879819.188711	8011.625808	None	None	False	0	0	takeaway_81	lightabovetv	False	Z	884.122262665	
0	blocked	50	search	887535.953552	895545.401446	8009.44789335	4	6050.73167669	True	893905.838924	319.153695271	clone_48	llightswitch	False	N	468.099813994	
0	blocked	51	search	902423.28639	910434.021411	8010.73502129	novel	6052.72636276	True	908673.696768	197.684014922	horizontal_16		False	Z	1060.13127256	
0	blocked	52	search	918123.277817	926134.354242	8011.07642413	novel	6037.95336999	False	0	0	color_22	orange	False	N	1871.16163296	
0	blocked	53	search	934903.824617	942915.509892	8011.68527428	None	None	False	0	0	clone_72	spotceilling	False	N	717.850931025	
0	blocked	54	search	950004.491364	958016.98049	8012.48912552	2	6037.63702147	True	956751.081713	708.953327123	horizontal_33		False	N	602.113256391	
0	blocked	55	search	968903.994866	976915.043821	8011.04895493	4	6051.10386917	True	975142.853693	187.754957888	horizontal_37		False	Z	1112.91679974	
0	blocked	56	search	985058.804903	993068.508773	8009.70387002	4	6050.73650644	True	991459.015963	349.474553565	takeaway_50	light	False	N	991.855233123	
0	blocked	57	search	1001053.07954	1009065.72563	8012.64609234	2	6049.74006898	True	1007335.82478	233.005172057	color_93	rocks	False	N	572.227679167	
0	blocked	58	search	1016312.61663	1024323.19559	8010.57896005	2	6039.63895216	True	1022782.57469	430.319107511	horizontal_12		False	Z	716.717751317	
0	blocked	59	search	1033306.07504	1041317.48622	8011.41118606	novel	6052.42903138	True	1039768.73927	410.235202708	color_72	bedspread	False	N	2485.75314794	
0	blocked	60	search	1052232.95295	1060242.64988	8009.69692725	4	6051.70336169	True	1059064.18222	779.525911902	horizontal_64		False	N	521.160938686	
0	blocked	61	search	1074090.63989	1082102.62521	8011.98532239	novel	6051.09209666	True	1081478.40227	1336.67028697	takeaway_22	lightleft	False	N	1204.50422331	
0	blocked	62	search	1091951.21381	1099960.91104	8009.69722911	novel	6050.7189986	True	1098412.03247	410.099667894	clone_95	light	False	Z	771.967053872	
0	blocked	63	search	1107411.57546	1115422.26158	8010.68612009	4	6050.71115026	True	1113715.60993	253.323319655	clone_8	teapotsright	False	Z	1612.30161054	
0	blocked	64	search	1124298.44887	1132309.58445	8011.13558854	2	6038.26488876	True	1130620.3199	283.606143682	horizontal_32		False	Z	1029.84392064	
0	blocked	65	search	1142877.75756	1150888.84153	8011.08397061	2	6040.12675675	True	1149125.60062	207.716307827	horizontal_36		False	Z	832.053047541	
0	blocked	66	search	1158965.44043	1166976.14376	8010.70332607	None	None	False	0	0	color_62	fruit	False	N	306.468361224	
0	blocked	67	search	1181343.46363	1189355.13924	8011.67561478	4	6050.74284548	True	1188564.23746	1170.03098887	clone_83	pumpkin	False	N	1117.18116567	
0	blocked	68	search	1197257.65923	1205267.41441	8009.75518609	novel	6037.82115563	True	1204839.8863	1544.40591379	takeaway_66	spottopleft	False	Z	829.177536116	
0	blocked	69	search	1214065.18802	1222074.65765	8009.46962722	2	6036.60104045	True	1220410.94729	309.158229197	takeaway_72	paintingwords	False	N	818.089943196	
0	blocked	70	search	1229071.6306	1237082.14919	8010.51858819	2	6051.53311306	True	1235892.85294	769.689223805	horizontal_42		False	N	1377.72526097	
0	blocked	71	search	1245758.85308	1253769.2802	8010.42712483	novel	6037.53167258	True	1252232.11137	435.726614509	color_29	cupright	False	Z	1986.15975238	
0	blocked	72	search	1262526.08366	1270536.77884	8010.69517587	2	6037.81089241	True	1268786.80283	222.908281268	color_13	wheelsleft	False	N	1311.98966917	
0	blocked	73	search	1278853.37578	1286863.10863	8009.73284851	None	None	False	0	0	color_27	pillowleft	False	Z	634.931094584	
0	blocked	74	search	1294915.77281	1302924.25989	8008.48707529	novel	6035.6082253	True	1301240.17886	288.797821301	horizontal_2		False	N	2084.92206899	
0	blocked	75	search	1312146.85725	1320157.55937	8010.70211863	4	6051.72147324	True	1318654.23771	455.658985958	horizontal_67		False	N	968.830615292	
0	blocked	76	search	1328168.24308	1336177.94393	8009.70085142	2	6050.74767523	True	1334598.79854	379.80778809	takeaway_76	reflectionlights	False	N	743.778529474	
0	blocked	77	search	1344681.55205	1352691.29999	8009.74794147	2	6050.77695558	True	1351046.31336	313.984355238	color_15	flowers	False	N	588.807299682	
0	blocked	78	search	1360208.83711	1368220.49703	8011.6599181	novel	6024.84573482	False	0	0	color_49	spacepink	False	Z	768.002434193	
0	blocked	79	search	1374443.09681	1382454.05853	8010.9617176	4	6050.99127566	True	1380803.06128	308.973189463	horizontal_73		False	N	881.067144973	
0	blocked	80	memory	1391143.68441	1399154.37023	8010.68581823	2	6037.55793434	True	1397358.48505	177.24270874	clone_24	light	False	incorrect	4815.64759983	
0	blocked	81	memory	1410416.79913	1418426.47463	8009.67549525	novel	6050.71628187	True	1416847.29422	379.7788096	clone_20	chair	False	correct	4806.44300505	
0	blocked	82	memory	1432769.87607	1440778.65203	8008.77595461	None	None	False	0	0	horizontal_62		False	incorrect	2180.06931896	
0	blocked	83	memory	1449628.20326	1457638.86342	8010.66016019	2	6050.76337191	True	1455866.51692	187.550297301	clone_96	NtoMinPoster	False	correct	8072.89327886	
0	blocked	84	memory	1472539.17379	1480553.77653	8014.60274414	4	6051.71694535	True	1478788.43106	197.540329908	clone_69	hangingspat	False	incorrect	5005.47633091	
0	blocked	85	memory	1498156.22213	1506167.89865	8011.67652036	novel	6024.62477383	False	0	0	color_70	tomato	False	incorrect	3790.83416395	
0	blocked	86	memory	1516589.20515	1524599.91029	8010.70513722	novel	6038.75631565	False	0	0	color_73	fruitleft	False	incorrect	4381.62196231	
0	blocked	87	memory	1537994.34618	1546005.03622	8010.69004426	novel	6051.68796686	True	1544273.94574	227.911598701	takeaway_84	outlet	False	correct	12577.1676062	
0	blocked	88	memory	1569009.08174	1577019.75488	8010.67314014	novel	6051.67468506	True	1575248.16364	187.407216006	color_39	painting	False	incorrect	6914.25204404	
0	blocked	89	memory	1590774.26843	1598784.35023	8010.08179783	None	None	False	0	0	takeaway_94	topshelf	False	incorrect	11499.7902078	
0	blocked	90	memory	1619176.90312	1627187.63361	8010.7304934	4	6037.83745603	False	0	0	color_61	apple	False	correct	5054.54778161	
0	blocked	91	memory	1638849.16756	1646859.91073	8010.74317149	4	6051.7054747	True	1645544.03131	643.158269042	clone_62	robotbottomshelf	False	correct	12201.6854614	
0	blocked	92	memory	1666078.86345	1674089.72284	8010.85938731	2	6037.94642722	True	1672121.92609	5.11621280108	horizontal_44		False	incorrect	2050.04192825	
0	blocked	93	memory	1685658.24791	1693670.82367	8012.57575913	None	None	False	0	0	clone_50	redvase	False	incorrect	6028.71949486	
0	blocked	94	memory	1707449.80412	1715460.04259	8010.23846279	2	6038.30020629	True	1713493.2954	5.19107390055	clone_38	windowtower	False	incorrect	13116.1074522	
0	blocked	95	memory	1738224.65363	1746235.72432	8011.0706888	4	6051.12892349	True	1744569.56015	293.777593711	color_79	bookright	False	correct	8945.38550749	
0	blocked	96	memory	1764401.42785	1772412.54865	8011.12079744	4	6051.20197344	True	1770655.30629	202.676465421	takeaway_58	drawerhandle	False	incorrect	7927.47498945	
0	blocked	97	memory	1789845.76621	1797855.50842	8009.74220614	2	6051.75467776	True	1796181.16296	283.642064935	horizontal_58		False	correct	2168.00611688	
0	blocked	98	memory	1810330.98175	1818341.50185	8010.52009749	novel	6037.30588185	True	1816565.75944	197.471807853	horizontal_63		False	incorrect	3125.57526831	
0	blocked	99	memory	1831922.90454	1839934.60008	8011.69553749	None	None	False	0	0	takeaway_36	backwindowbuildings	False	correct	4769.15523475	
0	blocked	100	memory	1854514.10377	1862525.78723	8011.68346312	novel	6053.69533102	True	1860790.77349	222.974388448	horizontal_3		False	correct	2642.86969158	
0	blocked	101	memory	1874386.24222	1882396.99626	8010.75403842	4	6051.78154324	True	1880595.13729	157.113525046	horizontal_45		False	incorrect	2598.64881753	
0	blocked	102	memory	1892299.50266	1900311.21812	8011.71546021	2	6037.84500251	True	1898509.67217	172.324515622	takeaway_100	cabnet	False	correct	7250.57579656	
0	blocked	103	memory	1920248.95934	1928259.99803	8011.03869172	4	6051.07670184	True	1926497.57456	197.538518752	clone_30	lightonright	False	incorrect	4220.51936699	
0	blocked	104	memory	1942173.87185	1950184.8888	8011.01695785	2	6051.30732232	True	1948417.69475	192.515580466	clone_45	dressknob	False	incorrect	6009.74884705	
0	blocked	105	memory	1968697.5192	1976707.89984	8010.3806385	2	6051.4008987	True	1974946.31342	197.393324443	takeaway_28	ovenknob	False	correct	4458.30568806	
0	blocked	106	memory	1993501.23159	2001511.94004	8010.70845767	novel	6037.61649504	True	1999782.1216	243.273518912	color_81	paintings	False	correct	11017.6319019	
0	blocked	107	memory	2024529.92965	2032539.5662	8009.6365554	None	None	False	0	0	takeaway_86	cuponshelf	False	incorrect	4619.71678356	
0	blocked	108	memory	2049439.88171	2057450.56843	8010.68672381	4	6051.71000259	True	2055785.3032	293.71148653	takeaway_1	.thermostat	False	correct	3408.92241673	
0	blocked	109	memory	2073563.93017	2081574.43276	8010.50258965	2	6051.55786552	True	2079818.083	202.594963418	takeaway_25	plugin	False	correct	6352.07416562	
0	blocked	110	memory	2095782.26438	2103792.61091	8010.34652841	2	6051.32935805	True	2102223.5612	389.967465607	clone_25	wine	False	incorrect	6397.64857664	
0	blocked	111	memory	2118133.80124	2126144.48585	8010.68461079	novel	6038.75661751	True	2124486.61405	314.056197745	takeaway_41	leftdrawerhandle	False	incorrect	5811.14959481	
0	blocked	112	memory	2139365.72998	2147376.75539	8011.02540991	novel	6025.96593458	True	2145928.32503	536.629113361	color_59	dressflowers	False	correct	5145.22298646	
0	blocked	113	memory	2165515.80928	2173526.50898	8010.69970375	4	6051.70758772	True	2171780.26426	212.747396313	clone_41	knobsleftcab	False	correct	4572.6795625	
0	blocked	114	memory	2191572.78974	2199583.44115	8010.65140627	4	6051.60314441	True	2198034.64922	410.256332857	horizontal_31		False	correct	7337.77931793	
