blocknr	blocktype	trialnr	trialtype	trialstart	trialend	duration	probeNback	probeonset	probefixated	probefixtime	probeRT	imagename	imagechange	filler	response	RT	
0	mixed	0	rating	109999.751271	118009.873097	8010.12182595	None	None	False	0	0	color_4	wholepic	False	6	4202.07187728	
0	mixed	1	search	129645.346698	137655.487541	8010.14084286	None	None	False	0	0	takeaway_41	leftdrawerhandle	False	Z	985.407992717	
0	mixed	2	search	145559.092634	153569.291433	8010.19879916	None	None	False	0	0	takeaway_8	ventonfireplace	False	Z	2039.23611184	
0	mixed	3	search	162805.651101	170815.818809	8010.16770802	None	None	False	0	0	horizontal_17		False	N	1688.27239219	
0	mixed	4	rating	179492.41512	187502.664028	8010.24890721	None	None	False	0	0	color_29	cupright	False	5	1201.17596951	
0	mixed	5	search	195166.248244	203176.590425	8010.34218062	None	None	False	0	0	horizontal_40		False	N	1390.88142172	
0	mixed	6	rating	210866.759377	218876.956968	8010.19759173	None	None	False	0	0	clone_65	xtraheartnightstand	False	4	2852.61351209	
0	mixed	7	search	227806.793927	235816.993632	8010.19970472	None	None	False	0	0	takeaway_34	flowersleft	False	N	957.554860013	
0	mixed	8	memory	242467.686194	250477.950496	8010.26430185	None	None	False	0	0	takeaway_16	pillow	False	incorrect	11989.4552742	
0	mixed	9	rating	269683.750895	277693.987728	8010.23683298	None	None	False	0	0	horizontal_13		False	6	1519.70348109	
0	mixed	10	rating	285904.00958	293914.173665	8010.16408575	None	None	False	0	0	color_85	mouse	False	5	995.048660651	
0	mixed	11	memory	301218.021933	309228.281406	8010.25947216	None	None	False	0	0	horizontal_78		False	correct	8037.78328027	
0	mixed	12	search	324075.702697	332085.985111	8010.28241319	None	None	False	0	0	color_21	checkers	False	N	606.469190643	
0	mixed	13	search	339123.171018	347134.46163	8011.29061129	None	None	False	0	0	takeaway_19	headboard	False	N	774.72779406	
0	mixed	14	memory	356369.697791	364379.899307	8010.20151586	None	None	False	0	0	horizontal_74		False	incorrect	4263.54871846	
0	mixed	15	search	374922.434551	382932.647839	8010.21328823	None	None	False	0	0	color_12	wine	False	N	710.568059258	
0	mixed	16	search	390009.835969	398020.024505	8010.18853606	None	None	False	0	0	clone_20	chair	False	N	1454.77220307	
0	mixed	17	rating	405856.969894	413867.178956	8010.20906225	None	None	False	0	0	horizontal_55		False	5	1778.20849235	
0	mixed	18	rating	422103.941904	430114.123497	8010.18159338	None	None	False	0	0	color_89	garlic	False	6	1589.37691244	
0	mixed	19	search	438297.534654	446307.778731	8010.24407752	None	None	False	0	0	clone_52	latle	False	N	957.950894715	
0	mixed	20	rating	453864.796711	461875.049844	8010.25313319	None	None	False	0	0	clone_54	jarleft	False	4	1784.6063243	
0	mixed	21	rating	469938.474862	477948.710789	8010.23592741	None	None	False	0	0	takeaway_92	bottlelidwindow	False	6	825.62640344	
0	mixed	22	rating	485279.140774	493289.365532	8010.22475875	None	None	False	0	0	clone_11	vaseleft	False	4	1444.54804803	
0	mixed	23	search	500859.708027	508869.913769	8010.20574184	None	None	False	0	0	takeaway_13	lightreflectionleft	False	Z	871.684152665	
0	mixed	24	rating	515667.196222	523677.515764	8010.31954144	None	None	False	0	0	horizontal_45		False	6	914.490613947	
0	mixed	25	search	530768.01724	538778.270071	8010.25283133	None	None	False	0	0	takeaway_68	spotonshelf	False	N	941.390788148	
0	mixed	26	rating	547601.375074	555611.593493	8010.21841978	None	None	False	0	0	clone_9	bookshelf	False	4	1016.93561508	
0	mixed	27	rating	563048.665783	571058.866393	8010.20061029	None	None	False	0	0	takeaway_20	drawerknob	False	5	2318.55437674	
0	mixed	28	memory	581001.630625	589011.825198	8010.19457318	None	None	False	0	0	takeaway_95	drawerknob	False	correct	21666.0549057	
0	mixed	29	memory	620239.595863	628249.840243	8010.24437937	None	None	False	0	0	horizontal_6		False	correct	3152.93459602	
0	mixed	30	search	641018.225143	649028.294446	8010.06930305	None	None	False	0	0	horizontal_71		False	Z	920.651187304	
0	mixed	31	search	656491.98407	664502.178644	8010.19457318	None	None	False	0	0	takeaway_87	bottleshadow	False	Z	670.461999233	
0	mixed	32	rating	673805.253557	681815.481938	8010.22838102	None	None	False	0	0	color_31	mid.light	False	5	980.814050538	
0	mixed	33	search	689599.086403	697609.322331	8010.23592741	None	None	False	0	0	clone_71	cupsshelf	False	Z	831.984088581	
0	mixed	34	search	706112.592485	714122.860107	8010.26762226	None	None	False	0	0	color_70	tomato	False	Z	824.727778967	
0	mixed	35	memory	721599.79999	729610.026258	8010.22626803	None	None	False	0	0	color_15	flowers	False	incorrect	15643.3912766	
0	mixed	36	rating	752054.562232	760064.729638	8010.16740616	None	None	False	0	0	clone_41	knobsleftcab	False	5	1484.3395744	
0	mixed	37	rating	768301.606989	776311.704969	8010.09797935	None	None	False	0	0	horizontal_12		False	4	802.349403427	
0	mixed	38	memory	783895.386166	791905.274959	8009.88879333	None	None	False	0	0	clone_42		False	incorrect	2759.96221974	
0	mixed	39	rating	819641.457589	827651.662727	8010.20513813	None	None	False	0	0	horizontal_14		False	5	1146.57600531	
0	mixed	40	memory	835954.986068	843965.19996	8010.21389194	None	None	False	0	0	clone_81	barsabovecouchleft	False	correct	9944.40421379	
0	mixed	41	search	860998.530868	869008.688917	8010.15804864	None	None	False	0	0	clone_76	window	False	N	1095.18084327	
0	mixed	42	search	876818.976522	884829.133061	8010.15653936	None	None	False	0	0	takeaway_60	lampsonwall	False	N	1146.34236898	
0	mixed	43	rating	892839.365366	900849.54213	8010.17676369	None	None	False	0	0	takeaway_11	lightleft	False	4	1293.57279749	
0	mixed	44	rating	908753.174692	916763.343909	8010.1692173	None	None	False	0	0	horizontal_25		False	5	1272.77373107	
0	mixed	45	rating	925093.40895	933103.56066	8010.15170967	None	None	False	0	0	horizontal_49		False	4	1012.16901143	
0	mixed	46	memory	940460.693707	948470.900958	8010.20725112	None	None	False	0	0	clone_69	hangingspat	False	incorrect	12270.9336186	
0	mixed	47	search	967783.32223	975793.607964	8010.2857336	None	None	False	0	0	color_74	fruitleft	False	N	1230.55256802	
0	mixed	48	memory	983577.108289	991587.313427	8010.20513813	None	None	False	0	0	horizontal_79		False	correct	2406.98995213	
0	mixed	49	search	1004115.69466	1012125.92243	8010.22777731	None	None	False	0	0	takeaway_52	lightbase	False	N	555.994990403	
0	mixed	50	search	1019296.42503	1027306.76118	8010.33614351	None	None	False	0	0	horizontal_8		False	N	825.557882192	
0	mixed	51	memory	1035397.32332	1043406.99871	8009.67538134	None	None	False	0	0	horizontal_60		False	incorrect	1372.56934456	
0	mixed	52	memory	1054895.85495	1062906.03473	8010.17978225	None	None	False	0	0	takeaway_53	drawerhandlebottom	False	correct	15728.8064836	
0	mixed	53	search	1086016.95041	1094027.19509	8010.24468123	None	None	False	0	0	color_57	shampoo	False	N	948.893110174	
0	mixed	54	search	1101584.18379	1109594.45322	8010.2694334	None	None	False	0	0	color_50	lightsintv	False	N	719.881515594	
0	mixed	55	rating	1116764.88458	1124775.06376	8010.17917854	None	None	False	0	0	clone_38	windowtower	False	4	1426.8997516	
0	mixed	56	memory	1132771.95465	1140782.23766	8010.2830169	None	None	False	0	0	horizontal_7		False	correct	3830.0241394	
0	mixed	57	search	1150991.48525	1159001.68194	8010.19668617	None	None	False	0	0	horizontal_56		False	N	1271.45401787	
0	mixed	58	memory	1166665.33709	1174675.59174	8010.25464247	None	None	False	0	0	color_46	lemon	False	correct	12972.9534258	
0	mixed	59	memory	1194241.21955	1202251.37126	8010.15170967	None	None	False	0	0	clone_73	xtrahanging	False	incorrect	19170.8669387	
0	mixed	60	rating	1230666.88531	1238677.10796	8010.22264576	None	None	False	0	0	color_86	buildingoutside	False	4	913.575085553	
0	mixed	61	rating	1245754.32355	1253764.53352	8010.20996782	None	None	False	0	0	takeaway_23	rightknob	False	5	2498.37978943	
0	mixed	62	memory	1264573.62276	1272583.80979	8010.18702678	None	None	False	0	0	color_39	painting	False	correct	5215.48725097	
0	mixed	63	search	1289403.86575	1297414.1877	8010.32195629	None	None	False	0	0	takeaway_32	ceilingfan	False	N	1145.72024435	
0	mixed	64	search	1305184.39973	1313194.63687	8010.23713483	None	None	False	0	0	horizontal_36		False	N	1323.00493745	
0	mixed	65	rating	1321258.11441	1329268.24891	8010.13450389	None	None	False	0	0	horizontal_75		False	5	1640.6199392	
0	mixed	66	search	1338437.97876	1346448.17816	8010.19940287	None	None	False	0	0	horizontal_47		False	N	1340.63391512	
0	mixed	67	rating	1353911.92937	1361922.12273	8010.19336575	None	None	False	0	0	color_61	apple	False	5	1298.30529144	
0	mixed	68	memory	1373077.75562	1381087.94989	8010.19427132	None	None	False	0	0	takeaway_65	rugcorner	False	correct	22017.7771888	
0	mixed	69	search	1413395.24867	1421405.47252	8010.22385318	None	None	False	0	0	clone_21	book	False	N	1314.12554964	
0	mixed	70	search	1432387.93531	1440398.06861	8010.13329647	None	None	False	0	0	horizontal_20		False	N	1276.55326652	
0	mixed	71	rating	1451820.11422	1459830.50198	8010.38776084	None	None	False	0	0	clone_78	fireplacehanging	False	6	1254.39615122	
0	mixed	72	memory	1468773.55297	1476783.76777	8010.21479751	None	None	False	0	0	clone_5	spanishbook	False	correct	19421.1083478	
0	mixed	73	memory	1507252.8102	1515262.00201	8009.19180848	None	None	False	0	0	color_26	flowerleftchair	False	incorrect	22088.5487713	
0	mixed	74	memory	1546929.35037	1554939.76801	8010.41764455	None	None	False	0	0	clone_6	bottomrightobject	False	incorrect	19092.6042029	
0	mixed	75	rating	1587660.31542	1595670.51452	8010.19910101	None	None	False	0	0	takeaway_36	backwindowbuildings	False	5	1545.86561806	
0	mixed	76	memory	1606119.75824	1614129.92806	8010.16982101	None	None	False	0	0	takeaway_94	topshelf	False	incorrect	25434.3106113	
0	mixed	77	search	1657499.58993	1665509.88472	8010.29478928	None	None	False	0	0	clone_14	corner	False	N	1251.89014504	
0	mixed	78	memory	1674039.7707	1682050.02474	8010.25403875	None	None	False	0	0	color_37	redtogreenright	False	correct	23219.3603617	
0	mixed	79	memory	1720754.84154	1728765.11369	8010.2721501	None	None	False	0	0	horizontal_81		False	correct	1773.07483215	
0	mixed	80	memory	1738334.61008	1746344.85657	8010.24649236	None	None	False	0	0	horizontal_2		False	incorrect	3022.52537927	
0	mixed	81	memory	1758206.81071	1766217.01404	8010.20332699	None	None	False	0	0	clone_99	light	False	correct	24466.3447476	
0	mixed	82	memory	1808507.12576	1816518.29744	8011.17168014	None	None	False	0	0	clone_63	xtrafruit	False	incorrect	20346.3362715	
0	mixed	83	rating	1847398.53226	1855408.73257	8010.20030844	None	None	False	0	0	clone_28	wine	False	4	991.200000241	
0	mixed	84	rating	1870189.59286	1878199.85656	8010.26369814	None	None	False	0	0	clone_25	wine	False	5	1192.61866175	
0	mixed	85	search	1891208.04258	1899218.24319	8010.20061029	None	None	False	0	0	clone_43	butterflyright	False	N	1339.02049631	
0	mixed	86	memory	1906775.30434	1914785.53423	8010.2298903	None	None	False	0	0	takeaway_74	sprinkler	False	correct	16971.9693761	
0	mixed	87	memory	1973922.31562	1981932.49993	8010.18431008	None	None	False	0	0	takeaway_40	handleshadow	False	correct	22508.6202447	
0	mixed	88	memory	2020770.56762	2028780.82528	8010.25766102	None	None	False	0	0	horizontal_35		False	incorrect	1041.03336079	
0	mixed	89	search	2042282.18288	2050292.45382	8010.27094267	None	None	False	0	0	color_33	chairmiddle	False	N	1176.01056012	
0	mixed	90	rating	2057635.80504	2065646.36305	8010.55800746	None	None	False	0	0	horizontal_65		False	5	2768.24514065	
0	mixed	91	memory	2086025.07636	2094035.28935	8010.21298638	None	None	False	0	0	horizontal_66		False	incorrect	1603.77603392	
0	mixed	92	memory	2114720.46621	2122730.66078	8010.19457318	None	None	False	0	0	horizontal_43		False	incorrect	1750.30012005	
0	mixed	93	memory	2141323.37833	2149333.6861	8010.30776907	None	None	False	0	0	horizontal_9		False	incorrect	1333.51615728	
0	mixed	94	rating	2157890.26488	2165900.42082	8010.15593565	None	None	False	0	0	horizontal_10		False	4	877.25127768	
0	mixed	95	search	2193302.98617	2201313.29454	8010.30837278	None	None	False	0	0	color_54	booktable	False	N	959.633136634	
0	mixed	96	rating	2208483.72801	2216494.06235	8010.33433237	None	None	False	0	0	color_62	fruit	False	6	687.878470473	
0	mixed	97	memory	2223264.59555	2231274.81035	8010.21479751	None	None	False	0	0	color_51	dots	False	incorrect	4531.68685126	
0	mixed	98	search	2251813.42751	2259823.61755	8010.19004534	None	None	False	0	0	color_35	v	False	N	1178.5908228	
0	mixed	99	rating	2271259.13106	2279269.34646	8010.21540122	None	None	False	0	0	takeaway_81	lightabovetv	False	5	2121.77010608	
0	mixed	100	memory	2287132.90285	2295143.23929	8010.33644536	None	None	False	0	0	horizontal_32		False	correct	1235.25698939	
0	mixed	101	search	2321652.37812	2329662.65843	8010.2803002	None	None	False	0	0	clone_79	midcouch	False	N	686.945434447	
0	mixed	102	rating	2346749.57929	2354759.78473	8010.20543998	None	None	False	0	0	horizontal_76		False	6	1413.55320101	
0	mixed	103	rating	2501062.42678	2509072.7095	8010.28271505	None	None	False	0	0	color_90	bookleft	False	5	2710.41260356	
0	mixed	104	rating	2609006.87567	2617017.02406	8010.14838925	None	None	False	0	0	horizontal_22		False	6	2534.21579846	
