blocknr	blocktype	trialnr	trialtype	trialstart	trialend	duration	probeNback	probeonset	probefixated	probefixtime	probeRT	imagename	imagechange	filler	response	RT	
0	mixed	0	rating	69708.172066	77718.437936	8010.26587	None	None	False	0	0	clone_93	leftcrack	False	7	2548.09434373	
0	mixed	1	rating	93125.7381169	101135.967764	8010.22964711	2	6011.01870248	True	99602.7263161	465.969496701	clone_17	dot	False	7	1962.09153405	
0	mixed	2	memory	109452.780439	117462.99288	8010.21244124	None	None	False	0	0	takeaway_49	chairlegs	False	correct	5872.01123393	
0	mixed	3	search	130911.128639	138921.396622	8010.26798301	None	None	False	0	0	takeaway_95	drawerknob	False	N	6389.31249551	
0	mixed	4	memory	153529.111736	161539.364928	8010.25319199	2	6011.07967769	True	159823.954321	283.76290667	clone_11	vaseleft	False	correct	6208.25598236	
0	mixed	5	rating	174054.493722	182064.42453	8009.93080824	novel	6011.02715449	True	180587.281478	521.760601686	horizontal_63		False	7	1912.2258908	
0	mixed	6	memory	245173.638668	253184.790792	8011.15212348	4	6011.01266533	True	251579.880839	395.229505238	clone_59	statue	False	incorrect	3204.74749322	
0	mixed	7	search	262886.82519	270898.914581	8012.08939086	4	6038.27552461	True	269188.598422	263.497706789	clone_81	barsabovecouchleft	False	N	5716.29022024	
0	mixed	8	memory	285424.768672	293435.72489	8010.95621799	novel	6051.07065819	False	0	0	color_31	mid.light	False	incorrect	8944.91614702	
0	mixed	9	memory	308962.337246	316972.825585	8010.48833894	2	6051.52193508	True	315019.028188	5.16900696751	clone_34	xtrafruit	False	correct	10494.9173243	
0	mixed	10	rating	335938.584083	343949.315417	8010.73133419	4	6037.87043192	True	343242.540348	1266.08583256	takeaway_10	leftoflight	False	7	3799.57631288	
0	mixed	11	memory	355397.947732	363408.571906	8010.6241748	None	None	False	0	0	horizontal_5		False	correct	7946.52293422	
0	mixed	12	search	378964.77233	386972.215833	8007.44350285	novel	6050.67945093	False	0	0	clone_10	vase	False	N	5363.5942408	
0	mixed	13	memory	404538.701445	412549.111	8010.40955415	novel	6051.42292583	False	0	0	horizontal_40		False	incorrect	8320.34561471	
0	mixed	14	search	427972.462149	435980.939815	8008.47766647	novel	6051.69761611	False	0	0	horizontal_75		False	N	2229.73434733	
0	mixed	15	search	445550.653189	453561.03135	8010.37816098	novel	6036.52354398	False	0	0	takeaway_29	dresserknob	False	N	2523.62396772	
0	mixed	16	search	465062.622441	473072.291539	8009.66909783	2	6050.72442769	True	471336.217279	222.870410786	clone_32	shelf	False	N	2126.07197127	
0	mixed	17	rating	482575.23978	490586.49846	8011.25867916	4	6050.96651737	True	488925.138447	298.932149086	horizontal_22		False	5	3568.21133161	
0	mixed	18	memory	501249.553402	509261.573969	8012.02056736	novel	6050.09716791	False	0	0	clone_15	xtracupx2	False	correct	13752.833385	
0	mixed	19	memory	530930.475287	538941.13991	8010.6646237	2	6050.72986113	True	538105.366361	1124.16121361	horizontal_67		False	correct	8891.6075177	
0	mixed	20	memory	554187.522602	562197.954795	8010.43219346	novel	6051.51227564	True	560487.375114	248.340236813	clone_29	topshelf	False	correct	9025.50876564	
0	mixed	21	search	579684.334081	587694.700772	8010.36669039	4	6051.42805741	False	0	0	clone_99	light	False	N	2261.71825712	
0	mixed	22	search	597024.301034	605034.866347	8010.56531259	None	None	False	0	0	color_39	painting	False	N	3452.89514499	
0	mixed	23	search	618229.424943	626239.891247	8010.46630335	novel	6051.51529421	False	0	0	takeaway_70	sceneryabovecouch	False	N	1458.55255731	
0	mixed	24	rating	634463.435102	642475.073216	8011.63811397	novel	6039.71206422	True	640822.186945	319.039779378	clone_18	wine	False	6	2307.45177374	
0	mixed	25	memory	652523.53492	660533.196471	8009.66155139	4	6050.69061966	False	0	0	color_12	wine	False	correct	14322.5283459	
0	mixed	26	rating	683059.005585	691068.729923	8009.72433774	None	None	False	0	0	color_37	redtogreenright	False	5	1495.34052841	
0	mixed	27	rating	701865.219139	709874.84809	8009.62895079	None	None	False	0	0	color_16	flowersleft	False	7	1946.84109198	
0	mixed	28	search	717777.587809	725788.042943	8010.45513463	novel	6051.30218285	False	0	0	color_66	painting	False	N	2655.71588211	
0	mixed	29	search	737036.829627	745047.078895	8010.24926784	2	6051.51318121	False	0	0	color_11	lemon2orange	False	N	5271.85100799	
0	mixed	30	rating	758761.746028	766772.152262	8010.40623372	2	6051.40239953	True	765005.690315	192.541887249	takeaway_61	fanlever	False	4	2090.33265295	
0	mixed	31	rating	776955.632388	784965.30209	8009.66970154	2	6050.67643236	True	783365.984952	359.676131105	takeaway_21	bear	False	6	1309.30668777	
0	mixed	32	rating	794668.740427	802678.424014	8009.68358698	novel	6050.73378527	True	800896.801277	177.327064358	horizontal_78		False	5	4221.00674289	
0	mixed	33	memory	813393.978608	821405.518316	8011.53970844	novel	6051.63996134	False	0	0	horizontal_19		False	correct	10137.1353487	
0	mixed	34	rating	837931.144505	845941.393772	8010.24926784	2	6024.26149066	True	844847.245641	891.839646078	color_60	paper	False	2	3084.36855346	
0	mixed	35	memory	856763.783868	864774.405326	8010.62145808	novel	6051.64780963	True	863129.764593	314.332916166	clone_39	xtraspots	False	correct	8433.76824955	
0	mixed	36	memory	880661.659757	888672.288158	8010.6284008	novel	6037.7662911	False	0	0	takeaway_66	spottopleft	False	incorrect	13204.6044128	
0	mixed	37	search	908650.475637	916660.95824	8010.48260365	novel	6051.52344436	False	0	0	horizontal_2		False	N	2656.44909385	
0	mixed	38	memory	927523.38701	935533.401432	8010.01442275	4	6051.69610682	False	0	0	horizontal_51		False	incorrect	12295.021284	
0	mixed	39	rating	957484.888412	965495.564507	8010.67609428	novel	6051.7111997	False	0	0	takeaway_83	soap	False	7	2634.25683601	
0	mixed	40	search	975211.363001	983223.636223	8012.27322204	novel	6024.48033731	False	0	0	color_76	exit	False	N	2162.34104941	
0	mixed	41	memory	993537.611136	1001550.81589	8013.20475413	4	6051.306107	True	1000844.86217	1255.94493154	clone_42		False	incorrect	9044.78809909	
0	mixed	42	rating	1018274.68424	1026286.59403	8011.90978568	4	6051.9566098	True	1024626.19815	299.557295864	color_17	underfacet	False	6	2750.35241857	
0	mixed	43	memory	1037787.21102	1045797.60579	8010.39476314	2	6051.61490717	True	1043843.95268	5.12674692436	clone_37	xtraknob	False	incorrect	13858.2815497	
0	mixed	44	memory	1068361.94882	1076373.1266	8011.17778136	4	6051.46156359	False	0	0	takeaway_57	lineinlight	False	incorrect	14648.3185634	
0	mixed	45	memory	1102042.28329	1110052.66024	8010.37695355	2	6051.40571996	True	1108098.85892	5.16991253966	clone_28	wine	False	incorrect	12386.0910728	
0	mixed	46	search	1130031.51724	1138042.26729	8010.75004935	4	6051.83133896	False	0	0	clone_60	xtralight	False	N	2389.62008825	
0	mixed	47	memory	1148251.15174	1156262.30597	8011.15423648	novel	6038.26858189	False	0	0	clone_56	tableleg	False	incorrect	9173.78295604	
0	mixed	48	memory	1173108.15673	1181118.22126	8010.06453109	2	6038.15961135	False	0	0	clone_31	vase	False	incorrect	7810.57750764	
0	mixed	49	rating	1199938.20676	1207948.91304	8010.70628002	4	6050.76306545	False	0	0	takeaway_40	handleshadow	False	6	2038.76996712	
0	mixed	50	rating	1219277.38556	1227288.052	8010.66643484	2	6050.73257784	False	0	0	takeaway_42	lights	False	5	3121.87947315	
0	mixed	51	memory	1237963.17792	1245974.07527	8010.89735579	4	6038.01683278	False	0	0	color_26	flowerleftchair	False	incorrect	16788.1784774	
0	mixed	52	search	1273522.75764	1281533.01536	8010.25771985	None	None	False	0	0	takeaway_28	ovenknob	False	N	2322.38798221	
0	mixed	53	search	1293168.53698	1301179.47659	8010.93961583	2	6050.99700497	True	1301082.99329	1863.45931052	takeaway_92	bottlelidwindow	False	N	2973.3239516	
0	mixed	54	memory	1310068.6454	1318079.65384	8011.00843933	4	6039.16841895	True	1317287.85398	1180.04015911	color_53	wine	False	correct	3409.65738576	
0	mixed	55	memory	1328794.79308	1336805.76318	8010.97010343	novel	6051.01722942	True	1335721.92379	876.113476667	color_64	flowers	False	correct	15336.3760564	
0	mixed	56	search	1360342.28914	1368353.21789	8010.92874896	novel	6051.95570423	False	0	0	clone_67	lightleft	False	N	2142.12444858	
0	mixed	57	memory	1376922.81505	1384933.31244	8010.49739467	novel	6051.5593654	True	1383222.76989	248.395476726	color_96	fruit	False	correct	16435.7315304	
0	mixed	58	rating	1412229.17531	1420239.79707	8010.62175994	4	6051.6444892	True	1418508.88246	228.062660777	takeaway_4	ceilinglights	False	6	2355.68919791	
0	mixed	59	search	1429569.26632	1437579.89865	8010.63232495	4	6051.70425698	False	0	0	takeaway_5	thermostat	False	N	1940.62524337	
0	mixed	60	memory	1446122.72769	1454133.18343	8010.45573834	2	6038.56228919	False	0	0	color_48	lightorbs	False	correct	17342.3226482	
0	mixed	61	search	1479096.64661	1487107.36164	8010.71503389	2	6051.02688886	True	1485233.8384	86.1649071397	color_46	lemon	False	N	1436.21420046	
0	mixed	62	search	1495223.70142	1503234.6338	8010.93237125	2	6052.20866077	False	0	0	takeaway_50	light	False	N	574.259649326	
0	mixed	63	rating	1511311.22801	1519321.78698	8010.55897359	4	6050.87324342	False	0	0	clone_76	window	False	7	2469.46893011	
0	mixed	64	memory	1528131.0493	1536142.20052	8011.1512179	2	6051.18928817	False	0	0	horizontal_38		False	correct	9063.38493285	
0	mixed	65	rating	1553854.44434	1561864.74734	8010.30299847	novel	6038.43037748	False	0	0	horizontal_36		False	7	1562.21342408	
0	mixed	66	memory	1572994.26712	1581004.89915	8010.63202309	2	6050.72382398	True	1579252.72562	207.734674546	clone_6	bottomrightobject	False	correct	12980.7094978	
0	mixed	67	rating	1605474.42422	1613486.46803	8012.04381038	4	6038.14814077	True	1611776.01996	263.447598452	color_69	pillow	False	5	1716.15468625	
0	mixed	68	search	1621148.487	1629158.60164	8010.11463942	novel	6051.13736868	False	0	0	clone_100	klenexright	False	N	2874.08107046	
0	mixed	69	search	1639101.50591	1647112.71055	8011.20464667	4	6038.3437444	True	1647034.12891	1894.27925799	horizontal_64		False	N	1624.96475814	
0	mixed	70	search	1654989.31213	1663001.91257	8012.60043552	4	6050.37065076	False	0	0	horizontal_20		False	N	1479.92074431	
0	mixed	71	memory	1671264.16089	1679273.20816	8009.04727148	4	6036.19240635	False	0	0	takeaway_39	light	False	incorrect	14362.3373064	
0	mixed	72	rating	1705076.06808	1713086.52532	8010.45724763	novel	6051.70365326	True	1711396.16828	268.396551339	color_55	flowerleft	False	7	1700.67905852	
0	mixed	73	rating	1721003.44782	1729013.81058	8010.36276625	2	6051.41628497	False	0	0	clone_13	xtrapillow	False	6	1981.50730706	
0	mixed	74	search	1739449.38575	1747459.87952	8010.49377238	4	6051.51619978	False	0	0	color_89	garlic	False	N	1908.06991743	
0	mixed	75	rating	1755216.63222	1763227.27874	8010.64651225	2	6051.67437309	True	1761734.17316	465.866563311	takeaway_60	lampsonwall	False	4	1326.44856862	
0	mixed	76	rating	1771023.91224	1779034.41899	8010.50675225	4	6051.58019356	True	1777298.37734	222.884899943	takeaway_54	phonebutton	False	4	1727.91203391	
0	mixed	77	search	1786897.74247	1794908.77808	8011.0356065	4	6051.11050337	False	0	0	takeaway_23	rightknob	False	N	3301.76477939	
0	mixed	78	memory	1804490.91107	1812501.7882	8010.87713134	novel	6051.00485326	False	0	0	clone_63	xtrafruit	False	incorrect	14451.5422199	
0	mixed	79	search	1842369.64618	1850379.96035	8010.3141672	novel	6052.33815762	False	0	0	clone_45	dressknob	False	N	1650.62415065	
0	mixed	80	memory	1858070.18699	1866081.24855	8011.06156624	None	None	False	0	0	color_56	book	False	incorrect	13171.9286457	
0	mixed	81	rating	1897601.83946	1905613.44316	8011.60370222	4	6051.64056505	True	1904479.10905	825.629025646	takeaway_64	plant	False	7	996.064382571	
0	mixed	82	rating	1912315.88537	1920327.6068	8011.72142663	novel	6037.90393809	False	0	0	color_23	bluebooks	False	5	1949.20674881	
0	mixed	83	memory	1928643.15288	1936653.82716	8010.67428313	2	6051.6849381	True	1936265.32636	1570.48854421	color_33	chairmiddle	False	incorrect	3704.13502446	
0	mixed	84	search	1949741.40899	1957751.68935	8010.28035916	2	6051.57747685	True	1955798.13826	5.15180109278	clone_51	bookshelf	False	N	1140.58467373	
0	mixed	85	search	1964868.92444	1972880.23353	8011.30908935	2	6038.16413921	False	0	0	takeaway_35	birdhouse	False	N	1079.53973984	
0	mixed	86	search	1980142.97237	1988153.47338	8010.50101696	2	6051.48208989	False	0	0	horizontal_6		False	N	450.555146036	
0	mixed	87	rating	1993977.69726	2001988.73045	8011.03319164	None	None	False	0	0	horizontal_24		False	6	2266.13020561	
0	mixed	88	rating	2011064.40099	2019074.89264	8010.49165938	2	6051.53944281	True	2017961.87933	845.93890043	horizontal_28		False	3	1859.23058951	
0	mixed	89	memory	2026764.98556	2034776.14765	8011.16208477	None	None	False	0	0	takeaway_79	cabnetcrack	False	correct	21012.1241045	
0	mixed	90	memory	2071108.60559	2079120.05082	8011.44522706	novel	6024.4435107	False	0	0	horizontal_43		False	correct	10146.2508399	
0	mixed	91	memory	2096591.40334	2104602.65719	8011.25384944	2	6053.49729023	True	2102817.19241	172.29178024	clone_90	pillowsplotch	False	correct	17773.8420597	
0	mixed	92	search	2139374.78259	2147385.56071	8010.7781221	2	6051.08031763	False	0	0	color_81	paintings	False	N	946.555534828	
0	mixed	93	memory	2154009.1976	2162019.90991	8010.71231717	4	6051.74712073	False	0	0	clone_57	xtrabushes	False	incorrect	15890.0182382	
0	mixed	94	search	2189182.33216	2197193.28506	8010.95289756	2	6038.11735131	False	0	0	clone_48	llightswitch	False	N	450.284681761	
0	mixed	95	rating	2203656.66945	2211667.51519	8010.84573817	novel	6052.13289455	True	2209967.07429	258.271950621	clone_36	light	False	7	573.232730283	
0	mixed	96	search	2219330.57073	2227340.90573	8010.33499536	novel	6051.36164877	False	0	0	takeaway_1	.thermostat	False	N	1371.04196966	
0	mixed	97	rating	2234298.13887	2242309.19047	8011.05160495	2	6051.12016281	False	0	0	takeaway_56	chairstar	False	6	2333.52742767	
0	mixed	98	rating	2252131.23041	2260142.24549	8011.01508019	novel	6051.05948946	False	0	0	color_5	applesgreen	False	6	5076.4789053	
