blocknr	blocktype	trialnr	trialtype	trialstart	trialend	duration	probeNback	probeonset	probefixated	probefixtime	probeRT	imagename	imagechange	filler	response	RT	
0	mixed	0	memory	1312996.77285	1321007.11868	8010.345831	2	6011.04191218	True	1319271.38955	263.574790391	color_69	pillow	False	correct	14622.4357287	
0	mixed	1	memory	1353047.76155	1361057.93865	8010.17709319	4	6010.98516315	True	1359063.94167	5.19495102693	takeaway_21	bear	False	incorrect	15322.4328913	
0	mixed	2	search	1385035.37245	1393045.56132	8010.1888656	2	6011.00267083	True	1391051.5411	5.16597279906	clone_37	xtraknob	False	N	11755.8801654	
0	mixed	3	rating	1421994.25144	1430004.52694	8010.27549843	2	6011.00991538	True	1428557.51152	552.25015938	takeaway_15	cat	False	6	5673.64961459	
0	mixed	4	search	1443772.44786	1451782.65846	8010.21059927	4	6011.01293395	True	1450224.40015	440.939353399	takeaway_61	fanlever	False	N	3993.68636864	
0	mixed	5	rating	1466097.10363	1474106.94385	8009.8402213	novel	6010.987578	True	1472650.07432	541.983112938	color_92	windows	False	2	2807.32799007	
0	mixed	6	memory	1485955.99656	1493966.25002	8010.2534629	2	6010.99784112	True	1492190.01567	223.021270019	horizontal_54		False	correct	17139.5588427	
0	mixed	7	search	1517890.24104	1525900.46069	8010.21965497	4	6011.03949732	False	0	0	color_7	greenonleft	False	N	5900.97354771	
0	mixed	8	search	1538002.41153	1546012.63119	8010.21965497	novel	6011.04251589	True	1544469.21063	455.756585303	fillers_1-8_4	filler	True	N	3284.43911433	
0	mixed	9	rating	1556501.86698	1564512.1123	8010.24531277	4	6010.98516315	True	1562740.83201	227.979867377	color_66	painting	False	6	2227.26808966	
0	mixed	10	search	1573388.66384	1581398.82795	8010.16411336	4	6011.05881614	True	1580584.86334	1185.1406893	clone_46	xtrawine	False	N	4393.44856606	
0	mixed	11	memory	1593114.32303	1601124.5279	8010.204864	novel	6010.6507061	False	0	0	takeaway_36	backwindowbuildings	False	correct	18331.0572344	
0	mixed	12	search	1625714.94208	1633725.11283	8010.17075421	novel	6010.96252391	False	0	0	color_49	spacepink	False	N	3866.05387777	
0	mixed	13	rating	1646853.33666	1654863.57654	8010.23987935	4	6011.01625437	False	0	0	clone_3	candle	False	6	6665.83575624	
0	mixed	14	memory	1671337.15957	1679347.3919	8010.23233294	2	6011.01323581	False	0	0	takeaway_83	soap	False	incorrect	24322.4594546	
0	mixed	15	search	1712014.69106	1720024.85909	8010.1680375	2	6010.95105336	False	0	0	horizontal_8		False	N	3892.5384686	
0	mixed	16	memory	1730740.72033	1738750.89229	8010.17196163	4	6010.99542627	False	0	0	clone_15	xtracupx2	False	incorrect	14294.002835	
0	mixed	17	memory	1760475.77933	1768486.02283	8010.24350163	4	6011.04130846	True	1766729.93982	243.119180206	color_34	IAcolor	False	correct	11102.2240186	
0	mixed	18	rating	1795168.98503	1803179.16936	8010.18433775	4	6024.2928105	True	1802874.29909	1681.02125312	clone_86	pilarceililng	False	5	4730.29963487	
0	mixed	19	search	1813801.69414	1821811.93009	8010.23595522	2	6010.99602998	True	1820911.88627	1099.19609567	horizontal_53		False	Z	5383.38225422	
0	mixed	20	search	1835220.03983	1843230.26371	8010.22388096	4	6011.01293395	True	1841236.2281	5.17533035181	takeaway_66	spottopleft	False	Z	2090.12168441	
0	mixed	21	search	1851600.30119	1859610.55103	8010.24984062	None	None	False	0	0	horizontal_79		False	N	3240.08099415	
0	mixed	22	rating	1869833.24751	1877843.4418	8010.19429902	4	6010.97942787	False	0	0	takeaway_47	appleicon	False	6	2470.79236134	
0	mixed	23	rating	1886853.25999	1894863.50772	8010.24772762	4	6010.98878543	True	1892869.42712	5.17834891728	clone_70	cabnethandleright	False	6	2965.11172314	
0	mixed	24	rating	1904912.89748	1912923.10839	8010.21090113	4	6010.94954408	False	0	0	takeaway_8	ventonfireplace	False	5	5041.04041497	
0	mixed	25	memory	1934021.63798	1942031.80783	8010.16984864	novel	6010.90879344	True	1940625.10656	592.559779669	clone_23	outlet.tv	False	correct	9216.92316423	
0	mixed	26	rating	1957332.47807	1965342.70256	8010.22448467	novel	6011.01323581	True	1964513.52951	1170.03820296	color_11	lemon2orange	False	6	10436.2409564	
0	mixed	27	rating	1986507.83438	1994517.97495	8010.14056855	None	None	False	0	0	color_13	wheelsleft	False	7	3132.48875886	
0	mixed	28	rating	2007459.6448	2015469.84061	8010.1958083	None	None	False	0	0	horizontal_3		False	6	6956.123341	
0	mixed	29	rating	2027798.36315	2035808.6468	8010.28364855	2	6011.00659496	True	2034118.50103	309.131281031	horizontal_81		False	5	2785.01747146	
0	mixed	30	search	2044658.53415	2052668.77041	8010.23625708	None	None	False	0	0	clone_57	xtrabushes	False	Z	4281.92676236	
0	mixed	31	search	2065157.18364	2073167.39243	8010.20878813	4	6010.62263344	True	2073056.37925	1888.57297925	color_29	cupright	False	N	4687.11000135	
0	mixed	32	memory	2086602.11052	2094612.40624	8010.29572281	2	6011.06515513	True	2092618.35221	5.176537778	takeaway_11	lightleft	False	incorrect	16363.7313936	
0	mixed	33	rating	2117363.58288	2125373.7325	8010.14962425	novel	6010.87740036	False	0	0	clone_96	NtoMinPoster	False	3	3042.06582163	
0	mixed	34	search	2139248.35639	2147258.53167	8010.17528205	novel	6010.95859977	False	0	0	horizontal_39		False	Z	3623.52331781	
0	mixed	35	rating	2162732.54515	2170742.72194	8010.17679134	novel	6010.96856104	False	0	0	color_24	potsleft	False	6	7736.03128683	
0	mixed	36	memory	2185830.17249	2193840.40543	8010.23293665	novel	6011.02168779	True	2192231.27041	390.076224813	clone_40	xtradoorknob	False	correct	14282.8576879	
0	mixed	37	memory	2216457.9378	2224468.54232	8010.60452205	2	6011.29184939	False	0	0	takeaway_58	drawerhandle	False	incorrect	9846.36468134	
0	mixed	38	search	2242301.57491	2250311.74626	8010.17135792	2	6010.95105336	True	2248717.82602	405.300057474	fillers_1-8_11	filler	True	N	8858.68072996	
0	mixed	39	search	2267411.83465	2275421.95831	8010.12366459	novel	6010.92660298	False	0	0	color_79	bookright	False	N	1964.08027935	
0	mixed	40	search	2291269.15099	2299279.39479	8010.24380349	2	6011.01202838	False	0	0	takeaway_98	handletopright	False	Z	2666.18349497	
0	mixed	41	search	2310168.47368	2318178.67824	8010.20456214	novel	6010.99814298	False	0	0	color_38	bottleright	False	N	6174.45376041	
0	mixed	42	rating	2339490.3741	2347500.63058	8010.25648146	None	None	False	0	0	clone_80	statue	False	6	1830.64157796	
0	mixed	43	rating	2355617.48981	2363627.65573	8010.1659245	None	None	False	0	0	takeaway_99	blockoncushion	False	5	3519.2282615	
0	mixed	44	search	2375849.56376	2383859.80696	8010.24319978	2	6010.95135522	False	0	0	fillers_1-8_2	filler	True	N	3841.41544153	
0	mixed	45	memory	2399800.24976	2407810.44828	8010.19852501	2	6011.0174618	False	0	0	color_74	fruitleft	False	incorrect	16924.7027921	
0	mixed	46	memory	2433067.32638	2441077.49714	8010.17075421	2	6010.96976846	False	0	0	color_31	mid.light	False	incorrect	6713.1638429	
0	mixed	47	search	2453952.51434	2461962.74909	8010.23474779	4	6011.00297268	False	0	0	clone_55	darklightright	False	N	1931.53410737	
0	mixed	48	rating	2470879.29693	2478889.43418	8010.13724813	None	None	False	0	0	takeaway_33		False	2	6215.00999749	
0	mixed	49	memory	2490884.81396	2498894.99709	8010.18313032	None	None	False	0	0	horizontal_65		False	incorrect	12814.0458073	
0	mixed	50	rating	2519046.87741	2527057.39229	8010.51487066	2	6011.27222872	True	2526906.44108	1848.29143162	takeaway_26	belowlightleft	False	6	6278.12819968	
0	mixed	51	memory	2539399.21704	2547409.42795	8010.21090113	2	6011.01082095	True	2545673.713	263.485138999	takeaway_43	reflectionlightlefttele	False	incorrect	14713.2900189	
0	mixed	52	search	2572346.4006	2580356.61513	8010.21452341	novel	6011.0084061	False	0	0	horizontal_6		False	Z	2193.87339895	
0	mixed	53	rating	2588286.86604	2596297.07	8010.20395843	novel	6011.02259336	True	2595082.89403	785.005397195	color_81	paintings	False	5	10084.8817568	
0	mixed	54	memory	2619807.91812	2627818.11483	8010.19671387	novel	6010.94531808	True	2626148.13217	329.268734424	color_85	mouse	False	correct	9625.68189392	
0	mixed	55	search	2645957.6936	2653967.9697	8010.27610214	2	6011.04976045	True	2651973.87009	5.12673144927	takeaway_25	plugin	False	N	6386.2993958	
0	mixed	56	memory	2666296.53481	2674306.70224	8010.16743378	None	None	False	0	0	clone_28	wine	False	incorrect	17274.6816017	
0	mixed	57	memory	2700389.79761	2708400.13258	8010.33496416	4	6011.21729083	True	2707667.25327	1266.23837249	takeaway_3	wallpaint	False	correct	10823.1117666	
0	mixed	58	memory	2732777.2344	2740787.49783	8010.26342416	novel	6011.02832863	True	2740525.61343	1737.35070176	color_99	thermlid	False	incorrect	5763.37647064	
0	mixed	59	search	2754035.67491	2762045.88883	8010.21391969	novel	6010.99693555	False	0	0	clone_85	glassontable	False	N	3999.33259519	
0	mixed	60	memory	2773867.87407	2781878.18036	8010.30628779	4	6011.10500019	True	2780425.98689	547.007816877	color_28	vase	False	incorrect	8330.4704253	
0	mixed	61	rating	2797951.60545	2805962.13602	8010.5305672	2	6011.31992205	True	2805553.06517	1590.1397958	color_87	picframe	False	6	2036.12347381	
0	mixed	62	search	2814478.90325	2822489.07672	8010.17347092	4	6010.91996214	False	0	0	color_40	whole+pic.in.mirror	False	N	2611.14387932	
0	mixed	63	search	2844906.99981	2852917.19713	8010.19731758	4	6011.03919547	True	2851536.32421	618.285201302	fillers_1-8_10	filler	True	Z	2800.9699858	
0	mixed	64	rating	2861793.79244	2869803.9632	8010.17075421	novel	6010.96735361	True	2869131.80143	1327.04163688	color_94	fruit	False	6	3452.48717713	
0	mixed	65	search	2884638.22403	2892648.43675	8010.21271227	2	6010.9806353	True	2891738.44916	1089.24448931	horizontal_29		False	Z	3930.2886473	
0	mixed	66	search	2904163.94191	2912174.15492	8010.21301412	2	6010.96795732	False	0	0	takeaway_87	bottleshadow	False	N	2812.17399494	
0	mixed	67	memory	2921583.83099	2929594.00477	8010.17377277	4	6011.02048036	False	0	0	color_53	wine	False	incorrect	9832.88769246	
0	mixed	68	search	2946933.86806	2954944.15684	8010.28878011	2	6011.06485327	False	0	0	color_14	vaseleft	False	N	2299.98472606	
0	mixed	69	search	2965513.39428	2973523.60639	8010.21210855	2	6011.01293395	True	2972152.37477	627.96755163	takeaway_49	chairlegs	False	Z	2264.06108127	
0	mixed	70	memory	2982320.13576	2990330.42454	8010.28878011	None	None	False	0	0	clone_49	vase	False	incorrect	11812.5739549	
0	mixed	71	memory	3010349.27639	3018359.52955	8010.25316104	2	6011.01323581	False	0	0	clone_29	topshelf	False	correct	15883.9210681	
0	mixed	72	memory	3042789.97788	3050800.18486	8010.20697699	novel	6011.00659496	True	3049135.26161	334.27713811	clone_2	statueright	False	correct	20781.3465941	
0	mixed	73	search	3079482.38275	3087492.59395	8010.21120298	None	None	False	0	0	takeaway_18	hanginglightright	False	N	6412.71395591	
0	mixed	74	search	3099754.51215	3107764.74841	8010.23625708	2	6011.01595251	True	3106049.3306	283.802498889	color_25	hangingcandle	False	N	2012.20919141	
0	mixed	75	search	3115495.0411	3123505.25834	8010.21724011	novel	6010.97429631	True	3122838.37061	1332.35521753	color_9	chairs	False	N	4679.31063211	
0	mixed	76	rating	3134327.70663	3142337.97247	8010.26583902	4	6010.987578	True	3140981.87623	643.182026738	color_16	flowersleft	False	5	2790.32501497	
0	mixed	77	memory	3152054.16333	3160064.37996	8010.2166364	novel	6010.96946661	True	3159412.26027	1347.12747281	clone_10	vase	False	correct	12256.3130276	
0	mixed	78	rating	3181535.98039	3189546.21997	8010.2395775	None	None	False	0	0	takeaway_67	lightreflection	False	3	1931.94312298	
0	mixed	79	rating	3197489.83951	3205500.07395	8010.23444594	2	6010.91030273	True	3204432.73036	931.980553194	horizontal_58		False	6	3314.96375307	
0	mixed	80	search	3224745.87211	3232756.08996	8010.21784383	4	6011.00508568	True	3231000.21885	243.341648474	fillers_1-8_15	filler	True	Z	2994.28947801	
0	mixed	81	search	3241726.0181	3249736.13784	8010.11974045	2	6010.93777167	True	3249170.20875	1433.2528785	clone_30	lightonright	False	N	3029.85693208	
0	mixed	82	rating	3264890.02129	3272900.48484	8010.46355505	None	None	False	0	0	color_97	vase	False	7	4483.75106253	
0	mixed	83	memory	3284269.41028	3292279.22666	8009.81637463	2	6010.98365386	True	3290285.6073	5.2133642761	horizontal_35		False	correct	11654.5680554	
0	mixed	84	rating	3318349.46143	3326359.69527	8010.23384222	4	6011.04704374	True	3326188.48134	1827.9728643	takeaway_53	drawerhandlebottom	False	4	1731.76092238	
0	mixed	85	memory	3335436.13893	3343446.38605	8010.24712391	None	None	False	0	0	takeaway_37	outletbyflower	False	correct	10497.5290024	
0	mixed	86	memory	3362758.83866	3370769.09786	8010.25919817	novel	6010.99391699	False	0	0	takeaway_57	lineinlight	False	correct	15515.2419441	
0	mixed	87	search	3393840.02086	3401850.29334	8010.27247986	novel	6011.02863049	True	3400575.26581	724.216320055	horizontal_66		False	Z	5112.62146707	
0	mixed	88	rating	3412792.68372	3420802.91334	8010.22961623	None	None	False	0	0	color_68	vase	False	5	4167.48117623	
0	mixed	89	rating	3536251.32998	3544261.54903	8010.21905125	novel	6011.03255462	True	3543487.88167	1225.51913287	takeaway_7	drawerhandles	False	6	2002.4350767	
0	mixed	90	rating	3552258.46255	3560268.67979	8010.21724011	4	6010.93596053	True	3559656.82896	1387.43045225	color_5	applesgreen	False	6	2949.68172247	
0	mixed	91	memory	3569611.65432	3577621.88243	8010.22810695	4	6011.0244045	False	0	0	takeaway_13	lightreflectionleft	False	correct	17750.3184586	
0	mixed	92	search	3608423.2409	3616433.42977	8010.1888656	None	None	False	0	0	color_61	apple	False	N	1925.09218699	
0	mixed	93	memory	3624936.82233	3632947.02388	8010.20154357	novel	6011.00659496	False	0	0	clone_5	spanishbook	False	correct	8566.85277128	
0	mixed	94	rating	3649860.46229	3657870.67319	8010.21090113	None	None	False	0	0	clone_58	xtrapillow	False	7	3961.62377084	
0	mixed	95	memory	3670225.85842	3678236.06509	8010.20667513	novel	6010.99361513	True	3676414.33825	177.486211193	horizontal_42		False	correct	9028.9045747	
0	mixed	96	rating	3695975.86778	3703986.00563	8010.13785184	2	6010.98093716	True	3703951.57436	1964.72564863	takeaway_95	drawerknob	False	5	5314.57133957	
0	mixed	97	rating	3715488.32359	3723498.53328	8010.2096937	4	6010.94109209	True	3723013.52529	1514.26060845	color_20	limes	False	5	3225.81223557	
0	mixed	98	memory	3733001.46129	3741011.65438	8010.19309159	novel	6010.98305015	False	0	0	clone_65	xtraheartnightstand	False	incorrect	10963.9903261	
0	mixed	99	search	3760684.04344	3768694.22567	8010.18222476	4	6010.96373133	True	3766700.1496	5.14242798975	takeaway_1	.thermostat	False	Z	3666.46633454	
0	mixed	100	memory	3783768.44434	3791778.5834	8010.13905927	4	6010.89883218	True	3790057.98664	278.643468791	horizontal_43		False	correct	9486.74759239	
0	mixed	101	rating	3810997.86195	3819007.98471	8010.12275902	None	None	False	0	0	horizontal_15		False	6	2474.39713212	
0	mixed	102	rating	3828550.94372	3836561.13078	8010.18705446	4	6010.9827483	False	0	0	color_96	fruit	False	5	6203.41478228	
0	mixed	103	memory	3848942.6373	3856953.32423	8010.68692889	4	6011.34075015	False	0	0	clone_54	jarleft	False	incorrect	10098.4607731	
0	mixed	104	search	3877372.00739	3885382.1866	8010.17920619	None	None	False	0	0	color_51	dots	False	N	2306.84894374	
0	mixed	105	search	3893459.00577	3901469.25018	8010.2444072	novel	6011.00568939	True	3899667.73625	197.724786527	takeaway_20	drawerknob	False	Z	2563.37296911	
0	mixed	106	memory	3911172.13158	3919182.38776	8010.25617961	2	6011.03557319	False	0	0	clone_78	fireplacehanging	False	incorrect	11156.1023922	
0	mixed	107	rating	3949970.43919	3957980.58459	8010.14539826	None	None	False	0	0	horizontal_75		False	5	3666.87142602	
0	mixed	108	memory	3974280.93848	3982291.12463	8010.18614889	novel	6010.97218332	True	3981776.06199	1484.15132431	clone_13	xtrapillow	False	correct	13352.65024	
