blocknr	blocktype	trialnr	trialtype	trialstart	trialend	duration	probeNback	probeonset	probefixated	probefixtime	probeRT	imagename	imagechange	filler	response	RT	
0	mixed	0	search	2120188.96303	2128199.14864	8010.18560667	4	6011.05224202	True	2126473.77666	273.761384588	horizontal_64		False	Z	4182.49118875	
0	mixed	1	rating	2139621.57557	2147631.82426	8010.24869507	4	6024.33853777	True	2146182.74324	536.829134886	horizontal_43		False	1	2432.29649011	
0	mixed	2	rating	2160653.49558	2168663.75031	8010.25473223	novel	6024.33099131	True	2166971.59996	293.773386477	clone_39	xtraspots	False	6	2064.08060584	
0	mixed	3	rating	2176967.25169	2184977.4862	8010.23450772	None	None	False	0	0	clone_26	statue	False	5	4678.02881661	
0	mixed	4	memory	2195746.67443	2203756.98923	8010.31480205	4	6011.06280707	True	2202061.65548	303.918242266	color_81	paintings	False	incorrect	15743.4234119	
0	mixed	5	rating	2226201.74251	2234211.98124	8010.23873374	novel	6011.02416919	True	2232521.74135	308.974671669	takeaway_12	light	False	3	1738.91727028	
0	mixed	6	search	2242182.32788	2250192.61733	8010.28944595	None	None	False	0	0	clone_93	leftcrack	False	N	1811.42998758	
0	mixed	7	memory	2258096.17509	2266106.48688	8010.31178346	4	6011.0676368	True	2264466.80464	359.561906924	color_27	pillowleft	False	incorrect	14921.1011672	
0	mixed	8	search	2287018.42393	2295028.64696	8010.22303711	4	6024.37838308	True	2293655.37646	612.574151506	takeaway_93	statueheadleft	False	N	2118.6267135	
0	mixed	9	memory	2303692.04772	2311702.23212	8010.18439924	2	6024.33099131	True	2310385.17791	668.799195366	clone_42		False	correct	5516.67888187	
0	mixed	10	rating	2323324.57441	2331334.8062	8010.231791	None	None	False	0	0	takeaway_51	lightright	False	6	3939.99055787	
0	mixed	11	search	2346928.83417	2354939.07985	8010.24567648	2	6024.36238458	True	2353241.91865	288.722088667	color_68	vase	False	Z	3183.20568749	
0	mixed	12	search	2364508.71616	2372519.04424	8010.32808382	2	6011.00937814	True	2370727.51548	207.789937974	clone_96	NtoMinPoster	False	Z	2779.12540766	
0	mixed	13	memory	2381755.50952	2389765.78297	8010.27344745	2	6011.03443238	True	2388278.04475	511.500803547	clone_81	barsabovecouchleft	False	incorrect	28347.7106458	
0	mixed	14	rating	2425152.27215	2433162.42727	8010.15511897	2	6010.98311646	True	2431522.82653	359.571264533	takeaway_53	drawerhandlebottom	False	2	2593.48070461	
0	mixed	15	memory	2441772.5464	2449782.80536	8010.25895825	None	None	False	0	0	horizontal_50		False	incorrect	2290.29295958	
0	mixed	16	rating	2463364.26184	2471374.60562	8010.34378045	novel	6011.04288441	True	2469699.56037	324.255647468	clone_86	pilarceililng	False	4	1994.26710601	
0	mixed	17	rating	2482570.24455	2490580.52343	8010.2788809	4	6011.03382866	True	2489204.21986	622.941476909	clone_11	vaseleft	False	2	3387.98911619	
0	mixed	18	memory	2500376.78262	2508387.028	8010.24537462	4	6011.0277915	True	2507071.3889	683.57848257	clone_18	wine	False	correct	11901.0242658	
0	mixed	19	search	2526140.29048	2534150.49481	8010.20432189	None	None	False	0	0	clone_58	xtrapillow	False	N	1854.62712644	
0	mixed	20	memory	2541814.2095	2549824.49804	8010.28854037	novel	6011.08967246	True	2548448.19567	622.896500013	color_74	fruitleft	False	incorrect	6151.03211411	
0	mixed	21	search	2564179.02887	2572189.26519	8010.23631887	None	None	False	0	0	color_99	thermlid	False	Z	1698.03749805	
0	mixed	22	rating	2579599.7669	2587610.02315	8010.25624153	2	6011.04107326	True	2586010.86237	400.054394877	takeaway_55	vase	False	3	1159.75582073	
0	mixed	23	search	2596419.99606	2604430.25231	8010.25624153	4	6011.03594167	True	2603311.94556	880.913556218	takeaway_31	glass.left	False	Z	808.601272876	
0	mixed	24	search	2611161.01457	2619171.27111	8010.25654338	2	6024.36510131	True	2617600.86325	415.483583131	takeaway_41	leftdrawerhandle	False	Z	1195.39201138	
0	mixed	25	rating	2626328.60875	2634338.7524	8010.14364836	2	6010.6471481	True	2632536.87834	197.622442807	takeaway_77	light	False	5	894.318180446	
0	mixed	26	rating	2640909.64353	2648919.9049	8010.26137312	2	6011.01118929	True	2647690.21665	769.561931072	takeaway_17	clock	False	3	1872.94902337	
0	mixed	27	rating	2662034.86374	2670045.15771	8010.29397382	4	6011.0190376	True	2669878.87601	1832.99323958	clone_55	darklightright	False	5	1515.39900242	
0	mixed	28	rating	2681227.56558	2689237.82243	8010.25684524	None	None	False	0	0	color_48	lightorbs	False	4	3503.610226	
0	mixed	29	search	2699300.5498	2707310.89328	8010.34347859	novel	6011.10718024	True	2706385.06864	1073.41165149	horizontal_65		False	Z	1891.84807348	
0	mixed	30	rating	2715094.53328	2723104.86891	8010.33563027	novel	6011.1126137	True	2721627.19255	521.546649795	clone_57	xtrabushes	False	5	2158.92027679	
0	mixed	31	memory	2732314.65655	2740324.90615	8010.24960064	None	None	False	0	0	horizontal_41		False	correct	3055.93616541	
0	mixed	32	search	2749441.39933	2757451.74824	8010.34891204	4	6011.06371264	True	2757193.94792	1741.4848775	clone_35	books	False	Z	1824.94328081	
0	mixed	33	memory	2765701.86808	2773712.13791	8010.26982515	novel	6011.02296176	False	0	0	color_37	redtogreenright	False	correct	8988.10466758	
0	mixed	34	search	2788399.84732	2796410.14099	8010.29367196	None	None	False	0	0	horizontal_9		False	Z	1884.49329452	
0	mixed	35	rating	2804073.87229	2812084.12219	8010.2499025	2	6011.01481159	True	2810439.33975	354.452652309	horizontal_60		False	5	7239.67734963	
0	mixed	36	rating	2826585.30638	2834595.42437	8010.1179904	None	None	False	0	0	clone_62	robotbottomshelf	False	4	16074.4618167	
0	mixed	37	memory	2865303.74558	2873314.02627	8010.28069205	None	None	False	0	0	takeaway_34	flowersleft	False	correct	14136.7122553	
0	mixed	38	rating	2893612.93034	2901623.18447	8010.25412852	4	6011.01601902	True	2900352.86367	728.917306506	color_88	bowltopshelf	False	5	5150.01636072	
0	mixed	39	rating	2912472.35128	2920482.63409	8010.28280506	None	None	False	0	0	horizontal_23		False	2	7754.18979405	
0	mixed	40	rating	2934370.61747	2942380.56672	8009.94925157	novel	6010.67491907	True	2940978.67431	597.381922065	clone_30	lightonright	False	5	2997.04239178	
0	mixed	41	rating	2951324.09808	2959334.39718	8010.29910541	2	6024.41309679	True	2957566.19814	217.68696805	horizontal_25		False	6	669.947766429	
0	mixed	42	search	2965558.70119	2973568.97011	8010.26891958	4	6011.11170812	True	2972060.98112	491.16822808	horizontal_16		False	Z	448.5591093	
0	mixed	43	rating	2979206.81675	2987217.07389	8010.2571471	None	None	False	0	0	horizontal_59		False	1	1040.25130312	
0	mixed	44	memory	2994094.4225	3002104.73851	8010.31600948	None	None	False	0	0	clone_8	teapotsright	False	correct	28495.92944	
0	mixed	45	search	3038610.78262	3046621.03494	8010.25231737	None	None	False	0	0	horizontal_42		False	Z	1387.39354965	
0	mixed	46	rating	3053658.26192	3061668.53296	8010.27103258	4	6024.4152098	True	3060624.59415	941.917017929	horizontal_48		False	7	774.275751235	
0	mixed	47	rating	3071704.80878	3079715.01431	8010.20552932	2	6024.29507017	False	0	0	horizontal_58		False	6	1247.60958364	
0	mixed	48	search	3086419.12158	3094429.37963	8010.25805268	4	6011.02235804	True	3093944.21265	1514.06871262	clone_28	wine	False	Z	474.333285439	
0	mixed	49	search	3102066.45683	3110076.7327	8010.27586232	novel	6011.03745096	True	3109358.34361	1280.84932076	horizontal_6		False	Z	360.272179646	
0	mixed	50	search	3115647.88886	3123658.20487	8010.31600948	2	6011.1111044	True	3121851.6345	192.634535253	takeaway_95	drawerknob	False	Z	405.063432516	
0	mixed	51	search	3129336.01997	3137346.27259	8010.25261923	2	6024.36449759	True	3135775.74399	415.359519345	color_18	magcolor	False	Z	452.843385015	
0	mixed	52	memory	3143090.79145	3151101.01056	8010.21911295	novel	6011.00605769	True	3150185.2381	1083.44059367	color_71	ventreflection	False	incorrect	21833.527227	
0	mixed	53	search	3178144.01723	3186154.28011	8010.26288241	2	6011.02899893	True	3184823.23989	668.193667495	color_7	greenonleft	False	Z	748.10885737	
0	mixed	54	memory	3193471.46684	3201481.73063	8010.26378798	None	None	False	0	0	horizontal_38		False	incorrect	1796.39261147	
0	mixed	55	memory	3208612.35017	3216622.6206	8010.27042887	2	6011.0154153	True	3215534.83144	911.465848349	takeaway_90	exitsign	False	incorrect	8025.82458648	
0	mixed	56	search	3233429.51577	3241439.7868	8010.27103258	novel	6011.03292309	False	0	0	clone_92	lights	False	Z	1053.7787837	
0	mixed	57	search	3248277.18567	3256287.39784	8010.2121702	novel	6024.28963672	True	3254802.56229	501.086991957	clone_47	chair	False	Z	509.930234496	
0	mixed	58	memory	3262191.86057	3269602.32485	7410.46428231	4	6010.96409938	True	3269093.9021	891.077429085	clone_3	candle	False	incorrect	3835.93575488	
0	mixed	59	memory	3281797.71143	3289807.91907	8010.20764233	2	6010.93844142	False	0	0	color_6	wholecolor	False	incorrect	4053.68762248	
0	mixed	60	rating	3306628.05194	3314638.38455	8010.33261169	None	None	False	0	0	color_44	wholepic	False	1	1166.12140985	
0	mixed	61	memory	3321089.2562	3329099.61145	8010.35525107	None	None	False	0	0	color_5	applesgreen	False	correct	38342.4317468	
0	mixed	62	search	3384531.65106	3392541.94805	8010.2969924	2	6011.10416166	True	3390836.72059	293.965368394	horizontal_21		False	Z	1125.39317052	
0	mixed	63	memory	3407922.74871	3415933.04932	8010.3006147	novel	6011.03533795	True	3415073.86474	1140.08069278	clone_43	butterflyright	False	incorrect	10675.3911782	
0	mixed	64	search	3432553.28494	3440563.54541	8010.26046754	2	6011.02296176	False	0	0	takeaway_36	backwindowbuildings	False	Z	1463.12981238	
0	mixed	65	rating	3457370.50518	3465380.74542	8010.24024303	None	None	False	0	0	takeaway_52	lightbase	False	4	1328.22629235	
0	mixed	66	memory	3473430.9985	3481441.27014	8010.2716363	2	6010.98402203	True	3479832.09038	390.107860029	color_78	ovenclock	False	incorrect	15185.4569471	
0	mixed	67	search	3502926.36045	3510936.67223	8010.31178346	novel	6011.05495875	True	3510123.60013	1186.18472766	horizontal_8		False	Z	1408.8861668	
0	mixed	68	rating	3518600.40292	3526610.65886	8010.25593967	None	None	False	0	0	horizontal_66		False	6	1222.81433417	
0	mixed	69	rating	3534247.67961	3542258.01132	8010.33170612	novel	6011.08031485	True	3540679.06962	420.309694604	horizontal_5		False	3	1961.88555221	
0	mixed	70	memory	3549495.22852	3556959.01337	7463.78484502	novel	6011.0262822	True	3555886.04485	379.790039399	clone_67	lightleft	False	incorrect	24239.774548	
0	mixed	71	memory	3592518.80336	3600529.0101	8010.20673675	2	6010.97043841	True	3600124.50963	1594.73583167	horizontal_27		False	correct	1381.461731	
0	mixed	72	rating	3608352.72632	3616362.96959	8010.24326162	None	None	False	0	0	horizontal_56		False	5	1855.83003201	
0	mixed	73	memory	3633436.45368	3641446.45878	8010.00509537	novel	6011.03292309	True	3639958.82199	511.335385165	clone_60	xtralight	False	correct	8975.09276107	
0	mixed	74	rating	3658266.95387	3666277.20619	8010.25231737	None	None	False	0	0	color_92	windows	False	6	978.223635993	
0	mixed	75	rating	3677153.01472	3685163.33677	8010.32204665	None	None	False	0	0	color_15	flowers	False	7	643.645036301	
0	mixed	76	search	3694826.35236	3702836.52377	8010.17141933	4	6010.9574585	False	0	0	clone_13	xtrapillow	False	Z	1082.30319137	
0	mixed	77	search	3711846.45642	3719856.73772	8010.28129577	2	6011.05978848	True	3718105.77811	248.261899558	takeaway_5	thermostat	False	Z	565.89115229	
0	mixed	78	memory	3732545.24223	3740555.51628	8010.27405117	2	6011.01209486	True	3738561.44176	5.18743593059	color_97	vase	False	incorrect	36128.5089525	
0	mixed	79	memory	3783485.73116	3791495.97834	8010.24718578	2	6010.98704062	True	3790637.27522	1140.55702527	horizontal_15		False	incorrect	1265.04401699	
0	mixed	80	memory	3800545.89092	3808556.23048	8010.33955443	4	6011.06129777	True	3806982.36181	425.40959161	color_24	potsleft	False	incorrect	40726.7535858	
0	mixed	81	search	3863095.21367	3871105.5318	8010.31812249	2	6011.12831033	True	3869111.48414	5.14215717651	color_84	painting	False	Z	1152.3624039	
0	mixed	82	search	3877702.99341	3885713.30368	8010.31027417	4	6011.07457954	True	3884706.91636	992.848371716	clone_90	pillowsplotch	False	Z	674.923901507	
0	mixed	83	rating	3893390.36414	3901400.67471	8010.31057603	2	6011.03413052	True	3900242.98753	841.589260121	color_26	flowerleftchair	False	7	1125.91840406	
0	mixed	84	search	3907864.4339	3915875.09463	8010.66073173	None	None	False	0	0	horizontal_63		False	Z	686.08119024	
0	mixed	85	rating	3921739.13189	3929749.74584	8010.61394368	None	None	False	0	0	color_83	artbehindtable	False	7	1157.71857866	
0	mixed	86	search	3936640.4873	3944650.79636	8010.30906674	novel	6011.05888291	True	3943467.16687	815.620687198	horizontal_40		False	Z	560.54342957	
0	mixed	87	memory	3950515.20944	3958525.46175	8010.25231737	2	6011.01511344	True	3957843.31378	1317.08922812	takeaway_22	lightleft	False	incorrect	33528.8316995	
0	mixed	88	rating	3999029.9531	4007040.18912	8010.23601701	novel	6011.02477291	True	4005511.95299	470.975111174	color_73	fruitleft	False	1	778.191457891	
0	mixed	89	memory	4013171.23006	4021181.48359	8010.2535248	2	6011.01300044	True	4019784.75718	602.514117915	takeaway_81	lightabovetv	False	correct	16000.1883596	
0	mixed	90	rating	4052182.92768	4060193.1981	8010.27042887	novel	6011.01722645	False	0	0	color_50	lightsintv	False	4	1003.13661023	
0	mixed	91	search	4067043.88568	4075054.21708	8010.33140426	novel	6011.09631334	True	4073931.68462	876.702632084	takeaway_37	outletbyflower	False	Z	579.339244123	
0	mixed	92	search	4081171.8694	4089182.135	8010.26559913	novel	6011.00605769	True	4087654.02866	471.153207608	takeaway_98	handletopright	False	Z	387.164137295	
0	mixed	93	memory	4095219.84948	4103230.10452	8010.25503409	novel	6011.01209486	True	4102344.85416	1113.99258394	horizontal_24		False	incorrect	1574.6541005	
0	mixed	94	memory	4111733.45575	4119743.7796	8010.3238578	novel	6024.3340099	True	4119266.12678	1508.33702607	takeaway_59	spottopright	False	incorrect	1914.00870318	
0	mixed	95	search	4131805.86312	4139816.07046	8010.20734047	4	6010.9610808	True	4138227.13423	410.310032686	horizontal_14		False	Z	1016.45067695	
0	mixed	96	memory	4148852.72783	4156862.91133	8010.18349366	4	6010.86478798	False	0	0	takeaway_61	fanlever	False	incorrect	31012.5340647	
0	mixed	97	memory	4194501.78096	4202512.03872	8010.25775082	4	6011.11200998	True	4201763.31437	1250.42139427	horizontal_51		False	incorrect	1845.78267647	
0	mixed	98	rating	4211228.76819	4219238.99304	8010.22484826	None	None	False	0	0	takeaway_84	outlet	False	6	1067.03730849	
0	mixed	99	search	4226382.99819	4234393.281	8010.28280506	novel	6011.00334097	True	4233740.85218	1346.85065135	horizontal_13		False	Z	781.914880772	
0	mixed	100	rating	4240617.55723	4248627.77181	8010.21458507	2	6011.03382866	True	4247084.32776	455.736697405	takeaway_29	dresserknob	False	4	1069.79357718	
0	mixed	101	rating	4255118.69644	4263128.89563	8010.19919029	2	6010.96289195	False	0	0	takeaway_38	reflectionlight	False	4	1029.78677933	
0	mixed	102	memory	4282068.33711	4290078.6172	8010.28008833	novel	6024.39981502	True	4289904.61276	1811.87583238	color_13	wheelsleft	False	correct	2179.29209385	
0	mixed	103	memory	4299088.43363	4307098.84443	8010.41079301	4	6011.04439371	True	4305757.60804	658.130011602	takeaway_71	stickerdesk	False	correct	29715.6793081	
0	mixed	104	search	4347896.56823	4355906.80244	8010.23420586	None	None	False	0	0	takeaway_89	vent	False	Z	826.626744892	
0	mixed	105	search	4361997.83236	4370008.08588	8010.2535248	None	None	False	0	0	color_8	paintingright	False	Z	877.048259907	
0	mixed	106	search	4376365.65884	4384375.90059	8010.24175232	4	6011.03262123	True	4383419.57135	1042.87988573	horizontal_29		False	Z	597.008825132	
0	mixed	107	search	4393025.9574	4401036.20489	8010.24748763	4	6011.0154153	True	4400161.39763	1124.42480889	takeaway_96	jarlid	False	Z	496.557305396	
0	mixed	108	memory	4406874.001	4414884.24819	8010.24718578	novel	6011.06461822	True	4413913.1466	1028.08097773	horizontal_36		False	correct	2429.0952822	
0	mixed	109	search	4429292.12856	4437302.30843	8010.17987136	novel	6010.94206372	True	4436457.08027	1154.00964498	clone_68	platestopshelf	False	Z	1573.88466354	
0	mixed	110	rating	4449484.36162	4457494.68035	8010.31872621	None	None	False	0	0	clone_87	cup	False	4	1439.95192	
