blocknr	blocktype	trialnr	trialtype	trialstart	trialend	duration	probeNback	probeonset	probefixated	probefixtime	probeRT	imagename	imagechange	filler	response	RT	
0	mixed	0	search	244287.346597	252297.580439	8010.23384222	2	6024.3712932	True	250514.445043	202.727153082	takeaway_83	soap	False	N	5009.70076358	
0	mixed	1	search	267078.498397	275088.731333	8010.23293665	None	None	False	0	0	fillers_9-16_23	filler	True	Z	1292.93094247	
0	mixed	2	search	283112.308744	291122.467122	8010.15837809	4	6024.28616966	True	289486.197006	349.602092711	color_91	cup	False	N	1408.1314718	
0	mixed	3	memory	298585.916823	306596.19534	8010.27851699	novel	6010.94531808	True	304910.678839	313.816698221	color_84	painting	False	correct	16074.7650349	
0	mixed	4	memory	328441.306411	336451.526368	8010.21995682	2	6010.93173454	True	334751.005786	298.767640496	color_12	wine	False	correct	10213.9435383	
0	mixed	5	memory	352378.636768	360388.846461	8010.2096937	novel	6024.33899455	True	358438.550159	35.5743967699	clone_59	statue	False	correct	2916.27314636	
0	mixed	6	rating	369358.706086	377368.885292	8010.17920619	novel	6024.3435224	True	375565.406577	182.356968298	color_100	stereoright	False	5	3562.42453587	
0	mixed	7	rating	386538.752342	394548.909815	8010.15747252	novel	6010.91422686	True	392904.114969	354.448399436	clone_100	klenexright	False	6	1675.56278133	
0	mixed	8	rating	402505.807116	410516.035525	8010.22840881	2	6024.31212932	True	408682.149593	152.030347449	color_37	redtogreenright	False	4	2134.81335607	
0	mixed	9	rating	418459.607671	426469.709904	8010.10223277	4	6024.32571286	True	424716.908675	232.975291231	takeaway_20	drawerknob	False	6	2137.79630238	
0	mixed	10	rating	434346.704572	442356.973429	8010.26885758	novel	6024.40721413	True	440538.42996	167.318173696	clone_74	chairhole	False	4	2442.54704132	
0	mixed	11	rating	452406.409984	460416.635374	8010.22539024	2	6024.34472983	False	0	0	color_47	potonshelf	False	5	1638.54671773	
0	mixed	12	search	467893.696692	475903.831224	8010.13453142	2	6024.43196637	True	474009.33763	91.2089716593	fillers_9-16_21	filler	True	Z	750.894400923	
0	mixed	13	search	482021.559198	490031.758326	8010.19912872	4	6010.98093716	True	488432.426999	399.886864169	clone_2	statueright	False	N	1070.74611692	
0	mixed	14	search	496762.476334	504772.721345	8010.24501092	None	None	False	0	0	horizontal_49		False	N	1105.52753656	
0	mixed	15	memory	511969.929957	519979.758708	8009.82875075	2	6010.95014779	True	518168.380407	187.500301857	horizontal_15		False	incorrect	2385.71620897	
0	mixed	16	search	528630.081755	536640.266394	8010.18463961	novel	6024.32420358	False	0	0	clone_89	piconshelf	False	N	1066.61309719	
0	mixed	17	rating	543517.572277	551527.856227	8010.28395041	2	6024.40691227	False	0	0	clone_10	vase	False	5	2485.4161032	
0	mixed	18	memory	560164.49008	568174.665966	8010.17588577	novel	6024.32178873	True	566436.993183	248.181314356	clone_84	flushlever	False	correct	7062.02850009	
0	mixed	19	memory	580809.783895	588819.98725	8010.20335471	2	6024.35076696	True	587026.713096	192.578434403	clone_49	vase	False	correct	2256.38185094	
0	mixed	20	rating	597136.769386	605146.981797	8010.21241041	4	6024.32027945	True	603424.434442	263.344775708	takeaway_51	lightright	False	5	1667.78635319	
0	mixed	21	memory	612823.999829	620834.224011	8010.22418281	None	None	False	0	0	color_58	peppers	False	correct	13297.1122592	
0	mixed	22	rating	639880.087188	647890.3648	8010.27761142	2	6024.40540299	True	646243.838806	339.346214961	horizontal_52		False	4	1672.95172227	
0	mixed	23	memory	655687.307416	663697.623363	8010.3159472	2	6024.34412611	True	661909.152652	197.501110832	color_64	flowers	False	incorrect	5905.21795249	
0	mixed	24	rating	675333.094766	683343.257672	8010.16290594	novel	6010.93958281	True	681718.825162	374.790813419	horizontal_24		False	7	1115.35266503	
0	mixed	25	rating	690567.156137	698577.311798	8010.15566138	2	6010.916038	True	696618.728025	40.6558497382	takeaway_90	exitsign	False	3	1539.61414282	
0	mixed	26	memory	706081.059046	714091.253646	8010.19460087	4	6024.25417286	True	712292.713606	187.400387342	horizontal_65		False	correct	4454.55187586	
0	mixed	27	rating	726753.023999	734763.239428	8010.21542897	novel	6010.99301142	True	733336.169175	572.152164674	color_31	mid.light	False	5	2190.22214226	
0	mixed	28	rating	742706.818818	750716.992289	8010.17347092	4	6024.33476856	True	748994.429539	263.275952418	color_72	bedspread	False	6	2532.08372776	
0	mixed	29	search	759127.097299	767137.302767	8010.20546771	2	6010.98365386	True	765143.275904	5.19495102682	horizontal_35		False	Z	919.484899929	
0	mixed	30	rating	774334.498399	782344.702357	8010.20395843	novel	6024.35197438	True	780703.174504	344.324131136	takeaway_85	switchleftdoor	False	7	815.783595425	
0	mixed	31	memory	789222.056838	797232.326602	8010.26976315	novel	6010.96916475	True	795602.737175	369.71117159	clone_68	platestopshelf	False	incorrect	20871.5268387	
0	mixed	32	search	824275.092428	832285.318422	8010.22599395	novel	6024.31182746	True	830987.846652	688.442396113	color_63	clock	False	N	1098.16042588	
0	mixed	33	rating	839749.069074	847759.259449	8010.19037488	2	6024.36585978	True	846006.38004	232.945105577	horizontal_45		False	2	1543.91227808	
0	mixed	34	search	855449.685647	863459.837686	8010.1520391	4	6024.27469911	True	861732.398745	258.438399532	horizontal_60		False	N	1507.02933321	
0	mixed	35	memory	870417.113817	878427.376335	8010.26251859	2	6011.00599125	True	876655.886565	227.76675666	clone_64	xtraglass	False	incorrect	11178.9420653	
0	mixed	36	memory	896100.526076	904110.706187	8010.18011176	2	6010.92962154	True	902415.311733	303.856036165	clone_8	teapotsright	False	correct	12095.0645852	
0	mixed	37	memory	922743.461486	930753.679933	8010.21844754	None	None	False	0	0	color_15	flowers	False	incorrect	11827.4868753	
0	mixed	38	rating	949066.555141	957076.73978	8010.18463961	4	6011.00689682	False	0	0	clone_17	dot	False	2	1202.7832984	
0	mixed	39	search	963474.299029	971484.487592	8010.18856374	novel	6024.31001632	True	970152.031555	653.422509804	fillers_9-16_28	filler	True	Z	1520.10243803	
0	mixed	40	rating	978561.702193	986571.924565	8010.22237167	2	6024.37793405	True	984824.291724	238.211596604	takeaway_2	candles	False	6	744.375808976	
0	mixed	41	memory	993022.791376	1001032.9905	8010.19912872	novel	6024.39121573	True	999315.801405	268.618813148	horizontal_72		False	incorrect	4642.93420252	
0	mixed	42	memory	1011269.03356	1019279.23088	8010.19731758	novel	6010.98999285	True	1017685.11262	405.089059753	horizontal_64		False	incorrect	2488.04195323	
0	mixed	43	memory	1030421.59125	1038431.78042	8010.18916746	novel	6010.93867724	True	1036655.46729	222.937353901	takeaway_21	bear	False	correct	9022.76269971	
0	mixed	44	rating	1054185.59287	1062195.85328	8010.2604056	4	6024.37491548	True	1060437.93165	227.96386898	takeaway_76	reflectionlights	False	4	1398.8635705	
0	mixed	45	rating	1069406.40546	1077416.62964	8010.22418281	None	None	False	0	0	horizontal_4		False	5	1873.76963275	
0	mixed	46	search	1084960.3762	1092970.61789	8010.24169049	2	6010.96312762	True	1091240.01519	268.675864034	horizontal_36		False	N	1047.44128287	
0	mixed	47	rating	1099767.94205	1107778.12729	8010.18524332	2	6024.32480729	True	1106177.20911	384.942248807	horizontal_21		False	5	1706.28664538	
0	mixed	48	search	1115148.6402	1123158.85532	8010.21512712	novel	6010.98999285	True	1122218.10101	1058.47081892	horizontal_48		False	Z	1690.58980353	
0	mixed	49	memory	1131489.0091	1139499.31328	8010.3041748	4	6011.00176526	True	1137662.92375	162.912879373	color_35	v	False	correct	11041.2082472	
0	mixed	50	rating	1157918.32728	1165928.89799	8010.57071412	None	None	False	0	0	clone_98	wine	False	6	2223.73184031	
0	mixed	51	memory	1173659.23687	1181669.43721	8010.20033615	None	None	False	0	0	clone_71	cupsshelf	False	incorrect	8648.87172063	
0	mixed	52	search	1197370.00216	1205380.22151	8010.21935311	None	None	False	0	0	horizontal_53		False	Z	1715.60254187	
0	mixed	53	memory	1213270.54224	1221280.7299	8010.18765817	2	6024.29401793	True	1219502.59053	207.754271874	clone_94	bottononwheel	False	correct	9902.75087901	
0	mixed	54	search	1238927.191	1246937.37382	8010.18282847	4	6010.90064332	True	1245186.1827	248.091059251	horizontal_63		False	N	1397.5592484	
0	mixed	55	search	1253414.88038	1261425.09792	8010.21754197	2	6010.985465	True	1259619.3094	193.443555242	clone_67	lightleft	False	Z	1213.69873269	
0	mixed	56	rating	1268742.29602	1276752.4882	8010.19218602	4	6010.93626239	True	1276312.75477	1559.5224871	clone_70	cabnethandleright	False	4	2629.90848917	
0	mixed	57	rating	1284682.71406	1292693.03062	8010.31655091	2	6010.98667243	True	1290957.1255	263.424767691	takeaway_88	fruitontable	False	5	1163.70434722	
0	mixed	58	rating	1299290.35822	1307300.60776	8010.24953876	novel	6010.98184273	True	1305615.86492	314.52485366	clone_61	towel	False	5	2537.15642689	
0	mixed	59	search	1316217.12873	1324227.39457	8010.26583902	novel	6010.96946661	True	1323266.83031	1038.73211802	color_74	fruitleft	False	Z	666.024114715	
0	mixed	60	search	1330464.92427	1338475.05186	8010.12758872	2	6024.35227624	True	1336926.43303	437.156487259	clone_88	lightright	False	N	737.905514074	
0	mixed	61	search	1344845.99279	1352856.22724	8010.23444594	novel	6011.00327454	True	1352220.2457	1363.24963053	horizontal_32		False	N	1900.52529075	
0	mixed	62	rating	1364717.91476	1372728.59445	8010.67968433	novel	6011.35493741	True	1371250.78332	521.513617352	color_42	cups	False	4	1267.9127707	
0	mixed	63	memory	1380312.15407	1388322.42776	8010.27368729	None	None	False	0	0	color_22	orange	False	correct	10474.2338277	
0	mixed	64	search	1405557.40074	1413565.91158	8008.5108451	4	6022.68965043	True	1411757.40545	177.315058536	color_70	tomato	False	Z	1365.79035701	
0	mixed	65	rating	1421269.63999	1429279.8349	8010.19490273	None	None	False	0	0	horizontal_31		False	5	1422.08418658	
0	mixed	66	memory	1438558.60394	1446566.42534	8007.82140477	2	6021.97877828	True	1444884.53836	303.955648823	horizontal_61		False	incorrect	1279.24205031	
0	mixed	67	rating	1453843.50882	1461853.87065	8010.3618294	novel	6011.09534078	True	1459874.97253	20.3683736455	horizontal_46		False	4	1100.73043245	
0	mixed	68	memory	1469904.07361	1477914.26127	8010.18765817	4	6010.9090953	True	1476213.97493	298.992221761	clone_93	leftcrack	False	correct	7907.22499662	
0	mixed	69	memory	1493281.60559	1501291.79325	8010.18765817	4	6010.97188146	True	1499582.2393	289.661836157	horizontal_10		False	incorrect	2452.02080878	
0	mixed	70	search	1512807.3627	1520817.48878	8010.12607944	novel	6010.95256264	True	1519365.07616	546.760898229	color_26	flowerleftchair	False	Z	1127.78070243	
0	mixed	71	search	1527868.17865	1535878.39498	8010.21633454	2	6010.94894036	True	1533884.30684	5.17925448669	fillers_9-16_18	filler	True	N	1258.58721481	
0	mixed	72	memory	1543914.9157	1551925.49969	8010.58399581	2	6011.32565732	True	1550300.80759	374.566232154	clone_25	wine	False	incorrect	2758.61830603	
0	mixed	73	rating	1562760.88857	1570771.50094	8010.61237032	4	6011.30301808	True	1568939.30933	167.117740954	color_20	limes	False	3	831.424895678	
0	mixed	74	rating	1577808.75819	1585818.99837	8010.24018121	None	None	False	0	0	color_6	wholecolor	False	7	799.701886483	
0	mixed	75	search	1592536.36375	1600546.60303	8010.23927564	2	6011.01323581	True	1598795.87857	248.501584143	color_77	booksleft	False	Z	661.066121071	
0	mixed	76	search	1607037.4124	1615047.64141	8010.22901252	novel	6011.00085969	False	0	0	takeaway_29	dresserknob	False	N	1855.73038415	
0	mixed	77	rating	1622511.44368	1630521.62832	8010.18463961	None	None	False	0	0	horizontal_73		False	5	1045.48404507	
0	mixed	78	rating	1637292.26203	1645302.48319	8010.22116425	2	6011.08326652	True	1643587.94771	284.602418716	clone_55	darklightright	False	2	1208.2381479	
0	mixed	79	search	1651993.25019	1660003.47407	8010.22388096	4	6011.00116154	True	1658318.14804	313.896690203	horizontal_59		False	N	994.951751251	
0	mixed	80	rating	1667507.23007	1675517.44972	8010.21965497	None	None	False	0	0	horizontal_39		False	7	1672.60307797	
0	mixed	81	search	1683314.37332	1691324.65154	8010.27821513	2	6011.04221403	True	1689604.81636	279.400826845	color_28	vase	False	Z	1145.13352926	
0	mixed	82	memory	1698975.1071	1706985.23529	8010.12819243	4	6010.91694357	True	1705385.99875	399.974704422	color_76	exit	False	incorrect	9418.10330255	
0	mixed	83	search	1723125.62092	1731135.45601	8009.83508974	2	6010.94833665	True	1729273.3477	136.77844213	clone_3	candle	False	N	989.465508665	
0	mixed	84	memory	1737240.13714	1745250.36917	8010.23203108	None	None	False	0	0	color_13	wheelsleft	False	correct	12061.7187953	
0	mixed	85	memory	1765349.19549	1773359.44322	8010.24772762	novel	6011.00961353	True	1771635.11219	274.907088557	color_45	flowers	False	incorrect	2148.93480865	
0	mixed	86	rating	1788207.00808	1796217.21114	8010.20305286	novel	6010.93414939	True	1794720.80232	502.860090702	clone_69	hangingspat	False	1	1581.14779138	
0	mixed	87	rating	1803707.62025	1811717.84564	8010.22539024	None	None	False	0	0	clone_82	rug	False	3	837.552885266	
0	mixed	88	memory	1818461.90872	1826472.11268	8010.20395843	2	6010.97550374	True	1824727.57327	254.689039469	color_59	dressflowers	False	incorrect	8481.11011968	
0	mixed	89	search	1842839.15061	1850849.32378	8010.17316906	novel	6010.85808154	True	1848855.19821	5.18951760908	clone_53	plates	False	Z	977.268391515	
0	mixed	90	memory	1858393.03231	1866403.25649	8010.22418281	None	None	False	0	0	horizontal_41		False	correct	8247.74452794	
0	mixed	91	rating	1882343.77053	1890353.93464	8010.16411336	4	6010.9576942	True	1888359.92257	5.19434731361	clone_41	knobsleftcab	False	5	858.487239921	
0	mixed	92	memory	1897297.8989	1905308.19432	8010.29542096	None	None	False	0	0	takeaway_91	table	False	correct	20410.472973	
0	mixed	93	search	1931724.53206	1939734.7321	8010.20003429	2	6010.98999285	True	1938556.25157	820.729514808	clone_97	xtralight	False	Z	953.956614763	
0	mixed	94	search	1945985.65065	1953995.90049	8010.24984062	novel	6011.0730034	True	1952595.20284	598.479186388	horizontal_8		False	Z	612.555058633	
0	mixed	95	search	1960340.07248	1968350.28972	8010.21724011	2	6010.99904855	False	0	0	takeaway_89	vent	False	N	697.835869733	
0	mixed	96	rating	1976480.4723	1984490.72999	8010.25768889	novel	6010.99723741	True	1982729.79825	238.328716941	color_81	paintings	False	5	927.764824779	
0	mixed	97	memory	1992087.71559	2000097.94067	8010.22508838	2	6011.00478382	False	0	0	clone_77	drawer	False	incorrect	12149.5502941	
0	mixed	98	search	2018797.27556	2026807.56042	8010.28485598	4	6011.03738433	True	2025086.87069	278.557741533	takeaway_99	blockoncushion	False	Z	895.425726387	
0	mixed	99	memory	2033031.76165	2041042.0302	8010.26855573	4	6024.37582105	True	2040503.82724	1447.68977117	horizontal_79		False	correct	2210.94670662	
0	mixed	100	memory	2050744.94028	2058755.12552	8010.18524332	4	6010.97912602	True	2056983.85611	227.936701891	takeaway_62	midwindow	False	incorrect	2558.67487394	
0	mixed	101	rating	2068817.9138	2076828.07731	8010.16350965	novel	6010.94139395	True	2075097.25667	268.40147644	horizontal_55		False	6	881.495952707	
0	mixed	102	search	2083478.88936	2091489.04985	8010.16049108	4	6024.26473784	True	2090450.43184	947.277736994	clone_20	chair	False	Z	884.492482564	
0	mixed	103	memory	2097579.99228	2105590.26054	8010.26825387	4	6011.0105191	True	2104082.10558	491.102778529	clone_22	xtra.orb.by.stair.rail	False	correct	9431.84743446	
0	mixed	104	search	2122077.22094	2130087.41735	8010.19641201	novel	6010.96041091	True	2128457.9541	369.772750324	horizontal_9		False	N	669.421208199	
0	mixed	105	memory	2136058.42041	2144068.64338	8010.22297539	None	None	False	0	0	color_93	rocks	False	incorrect	5526.0610861	
0	mixed	106	rating	2157183.23809	2165193.75537	8010.51728551	2	6010.96101462	True	2163366.48282	172.283713753	takeaway_57	lineinlight	False	3	1164.9615797	
0	mixed	107	memory	2173497.19575	2181507.40182	8010.20607142	4	6024.32420358	True	2179805.22224	283.702282518	takeaway_41	leftdrawerhandle	False	incorrect	5171.77629291	
0	mixed	108	rating	2193675.98598	2201686.25937	8010.27338543	4	6011.00870796	True	2199894.55004	207.555348415	takeaway_50	light	False	5	1855.72978044	
0	mixed	109	search	2209270.03965	2217280.16	8010.12034417	2	6024.29884763	True	2215962.69747	668.35897504	clone_60	xtralight	False	Z	1146.83781127	
0	mixed	110	search	2224410.7703	2232420.97728	8010.20697699	4	6010.94169581	True	2230442.05381	20.3418102697	fillers_9-16_16	filler	True	Z	629.75605162	
0	mixed	111	search	2240457.84634	2248468.04577	8010.19943058	4	6024.33295742	True	2246755.75157	273.572278944	takeaway_64	plant	False	Z	782.221072484	
0	mixed	112	search	2255172.12584	2263182.33161	8010.20576956	novel	6024.31635531	True	2262857.13583	1660.6936301	takeaway_10	leftoflight	False	Z	499.728630972	
0	mixed	113	search	2269020.07859	2277030.291	8010.21241041	4	6010.99784112	True	2275430.96903	399.892599443	color_94	fruit	False	N	504.9513528	
0	mixed	114	memory	2282548.08575	2290558.39083	8010.30508037	novel	6011.09473707	True	2288726.32539	167.144908042	horizontal_7		False	correct	1924.11326623	
0	mixed	115	memory	2299634.83086	2307645.0312	8010.20033615	2	6010.98938914	True	2305888.96781	243.147554721	takeaway_30	shotglass	False	correct	8020.906282	
0	mixed	116	rating	2323145.77075	2331155.89049	8010.11974045	2	6010.91301943	True	2329283.28753	126.603763788	clone_16	topbookself	False	7	2164.75480797	
0	mixed	117	memory	2339192.74929	2347202.65863	8009.90934644	2	6024.13282654	True	2345566.42896	349.546852964	horizontal_20		False	incorrect	2656.95966472	
