blocknr	blocktype	trialnr	trialtype	trialstart	trialend	duration	probeNback	probeonset	probefixated	probefixtime	probeRT	imagename	imagechange	filler	response	RT	
0	mixed	0	memory	479670.641526	487680.921281	8010.27975545	2	6011.10171328	True	485965.683336	283.940096993	takeaway_19	headboard	False	incorrect	8974.44927618	
0	mixed	1	rating	503088.216934	511098.47556	8010.25862543	novel	6024.38766707	True	509629.849717	517.245116097	horizontal_4		False	6	1471.36036889	
0	mixed	2	rating	524280.115261	532289.971511	8009.85624945	novel	6010.9525957	True	530483.737128	192.669271093	clone_54	jarleft	False	4	1119.20290314	
0	mixed	3	search	539900.704596	547910.932733	8010.22813782	novel	6011.00270404	True	546702.058245	790.350945508	clone_99	light	False	Z	1941.02792121	
0	mixed	4	search	555921.146986	563931.429156	8010.28217031	novel	6011.04164365	True	562540.218883	608.030253361	horizontal_66		False	N	770.86182113	
0	mixed	5	rating	570782.094239	578792.33596	8010.24172141	novel	6011.01568391	True	577224.041618	430.931695093	color_16	flowersleft	False	5	880.276090898	
0	mixed	6	memory	585722.982702	593733.175824	8010.19312236	2	6024.33936988	True	592000.703932	253.381859937	takeaway_20	drawerknob	False	correct	9056.33897626	
0	mixed	7	search	608594.167148	616604.369024	8010.20187623	4	6010.966783	True	616109.843813	1504.70988179	fillers_9-16_21	filler	True	N	888.944833136	
0	mixed	8	memory	627333.553689	635343.812918	8010.25922914	None	None	False	0	0	clone_87	cup	False	correct	10813.022553	
0	mixed	9	search	652790.369963	660800.618325	8010.24836227	None	None	False	0	0	horizontal_61		False	Z	1171.99143208	
0	mixed	10	memory	668077.811908	676088.025858	8010.21395052	novel	6011.01236348	True	675096.996156	1008.17188488	horizontal_21		False	incorrect	5332.11865896	
0	mixed	11	memory	687416.992522	695427.252053	8010.259531	2	6010.99183717	True	693737.249089	309.264729587	color_72	bedspread	False	correct	9944.56055894	
0	mixed	12	memory	711007.828975	719018.099373	8010.27039787	novel	6011.11137272	True	717758.977693	740.037345804	takeaway_43	reflectionlightlefttele	False	correct	3913.31378504	
0	mixed	13	search	730427.03381	738437.260137	8010.22632668	novel	6010.99545946	True	736772.60384	334.574571166	takeaway_38	reflectionlight	False	N	677.903612087	
0	mixed	14	memory	756710.205981	764720.460985	8010.25500314	None	None	False	0	0	horizontal_56		False	correct	2506.2300359	
0	mixed	15	memory	774943.167487	782953.379022	8010.21153566	None	None	False	0	0	takeaway_49	chairlegs	False	incorrect	7504.84330278	
0	mixed	16	memory	796721.413647	804731.636049	8010.22240253	novel	6011.01115605	True	803016.24144	283.816637296	clone_75	plates	False	incorrect	3734.28303724	
0	mixed	17	rating	815700.752712	823710.967266	8010.21455424	2	6010.98670559	True	821955.141266	243.401848937	color_32	bookabovetv	False	5	2813.38930978	
0	mixed	18	rating	832360.95812	840371.199841	8010.24172141	2	6011.01417462	True	838721.556425	349.584130992	clone_98	wine	False	6	824.898530618	
0	mixed	19	search	850966.744968	858977.352239	8010.60727078	2	6011.00632633	True	856982.918792	5.16749768029	fillers_9-16_23	filler	True	Z	679.755809398	
0	mixed	20	rating	866081.243725	874091.481824	8010.23809912	novel	6011.01960806	True	873885.99146	1793.72812665	clone_7	xtralight	False	4	1421.3673418	
0	mixed	21	memory	881595.262589	889605.506121	8010.24353255	4	6011.04254922	True	887925.526937	319.221799421	horizontal_1		False	incorrect	2179.01414564	
0	mixed	22	search	899268.434284	907278.695928	8010.261644	4	6010.99425203	False	0	0	clone_29	topshelf	False	Z	1665.5618684	
0	mixed	23	memory	914915.778753	922926.01323	8010.23447683	2	6010.9888186	True	921889.618277	962.850705531	horizontal_65		False	incorrect	1601.95054247	
0	mixed	24	search	930429.719134	938439.958742	8010.23960841	4	6011.01628762	True	936445.930388	5.19496670819	fillers_9-16_18	filler	True	N	847.715029664	
0	mixed	25	rating	945423.937054	953434.150703	8010.21364867	2	6011.00572261	True	951632.838106	197.895329118	horizontal_16		False	3	1421.286444	
0	mixed	26	search	965549.498585	973559.732156	8010.23357126	4	6011.04496408	False	0	0	horizontal_5		False	N	1567.43857654	
0	mixed	27	rating	981889.839237	989900.084279	8010.24504184	novel	6011.00964676	True	988584.861487	684.012603152	color_85	mouse	False	5	1197.36828601	
0	mixed	28	rating	1003468.15766	1011478.42625	8010.26858672	4	6011.00542076	True	1010026.63228	547.469196956	takeaway_62	midwindow	False	6	850.640933923	
0	mixed	29	search	1017995.53734	1026006.14069	8010.60334663	novel	6011.37791285	True	1025450.81263	1443.89737813	fillers_9-16_25	filler	True	N	1007.99922242	
0	mixed	30	rating	1032763.51703	1040773.75211	8010.23508054	4	6011.00994862	True	1039255.87581	481.348831902	color_89	garlic	False	5	2304.16303683	
0	mixed	31	memory	1048996.89298	1057007.52017	8010.62719337	novel	6011.40900417	True	1055626.66935	618.367361724	color_86	buildingoutside	False	incorrect	8413.8915402	
0	mixed	32	search	1074600.73798	1082610.6706	8009.93261938	novel	6010.95169013	True	1081295.4946	683.804925227	takeaway_6	lightsonright	False	N	482.233877945	
0	mixed	33	rating	1095059.43181	1103069.7007	8010.26888858	novel	6011.03198421	True	1102843.33961	1772.87581403	color_40	whole+pic.in.mirror	False	6	823.121193955	
0	mixed	34	rating	1110200.27789	1118210.52535	8010.2474567	novel	6011.02081549	True	1116865.02022	653.721509939	horizontal_79		False	7	2620.62495359	
0	mixed	35	rating	1126513.97147	1134524.22315	8010.2516827	novel	6010.94172883	True	1133624.13978	1099.22658084	clone_65	xtraheartnightstand	False	4	1202.72021859	
0	mixed	36	rating	1149105.24864	1157115.46742	8010.21878024	2	6011.02383406	True	1155395.06348	278.791012617	clone_70	cabnethandleright	False	5	3224.36339773	
0	mixed	37	memory	1165832.11806	1173842.35917	8010.24111769	None	None	False	0	0	clone_93	leftcrack	False	incorrect	9849.00486655	
0	mixed	38	rating	1189649.57308	1197659.83775	8010.26466257	2	6011.06579225	True	1196887.09686	1226.45798657	color_63	clock	False	4	1250.00739551	
0	mixed	39	rating	1206443.1044	1214453.33465	8010.23025083	2	6011.00602447	True	1212586.08009	131.969662119	clone_28	wine	False	5	538.862335495	
0	mixed	40	rating	1221703.90078	1229714.10719	8010.20640409	4	6010.95863285	True	1227943.03618	228.176762893	clone_9	bookshelf	False	5	1099.15775734	
0	mixed	41	memory	1236738.06773	1244748.32665	8010.25892728	4	6011.01990991	True	1243007.62673	258.539094464	clone_83	pumpkin	False	correct	4816.55368142	
0	mixed	42	search	1255277.56245	1263287.82681	8010.26436072	4	6011.00783562	True	1261597.72152	309.151231186	horizontal_35		False	Z	946.180326018	
0	mixed	43	memory	1269418.76775	1277429.01852	8010.25077713	4	6011.01175976	True	1275774.34314	344.563637889	color_88	bowltopshelf	False	correct	4408.45357825	
0	mixed	44	rating	1292809.68461	1300819.96527	8010.28066102	None	None	False	0	0	clone_74	chairhole	False	3	3571.6186985	
0	mixed	45	search	1310229.69994	1318239.90906	8010.2091208	novel	6010.97312201	True	1316539.77636	299.10330226	color_91	cup	False	N	761.195440021	
0	mixed	46	search	1326609.97965	1334620.33517	8010.35552167	2	6011.10412814	True	1333284.87676	663.792983746	clone_20	chair	False	N	948.491950368	
0	mixed	47	search	1341444.2753	1349454.52216	8010.24685299	None	None	False	0	0	clone_11	vaseleft	False	Z	1129.96623423	
0	mixed	48	search	1359570.63042	1367580.85554	8010.22511925	2	6010.98942231	True	1366721.48881	1139.86896972	color_69	pillow	False	Z	875.310233994	
0	mixed	49	search	1374871.38307	1382881.64652	8010.26345515	None	None	False	0	0	takeaway_46	outletbydoor	False	Z	1059.67510479	
0	mixed	50	memory	1389105.83303	1397116.10585	8010.27281273	4	6011.1285786	True	1395375.41437	258.452763233	color_47	potonshelf	False	incorrect	7583.18557411	
0	mixed	51	rating	1412150.23958	1420160.54077	8010.30118733	4	6011.04224736	True	1418404.51434	243.232506908	color_30	chairsright	False	6	669.632114252	
0	mixed	52	memory	1428877.18235	1436887.44128	8010.25892728	4	6011.02232477	True	1435400.0393	511.83462317	horizontal_9		False	correct	5149.89063705	
0	mixed	53	rating	1449922.29948	1457932.63357	8010.33408979	novel	6011.07937583	True	1456080.56485	147.185994297	horizontal_30		False	6	985.973589888	
0	mixed	54	search	1467648.84349	1475659.13472	8010.29122603	None	None	False	0	0	fillers_9-16_20	filler	True	N	1099.16500192	
0	mixed	55	memory	1483482.85269	1491492.9963	8010.14361774	novel	6010.88286663	True	1490633.747	1140.01144643	horizontal_51		False	incorrect	2247.08300054	
0	mixed	56	rating	1502355.46431	1510365.68853	8010.22421368	2	6024.35778318	True	1508714.28076	334.458657905	takeaway_84	outlet	False	7	6106.53575713	
0	mixed	57	rating	1525733.10821	1533743.38585	8010.27764245	4	6010.99153531	True	1533467.50022	1723.40047247	horizontal_42		False	4	813.907900877	
0	mixed	58	memory	1544259.18447	1552269.53787	8010.35340867	novel	6011.12374888	False	0	0	horizontal_43		False	correct	1056.12888347	
0	mixed	59	search	1561386.02376	1569396.2685	8010.24473998	2	None	False	0	0	clone_89	piconshelf	False	N	1501.73960448	
0	mixed	60	rating	1585296.75274	1593307.15867	8010.40593186	4	6011.16359406	True	1591480.79855	172.882213412	color_76	exit	False	3	1057.19625141	
0	mixed	61	rating	1600730.79749	1608741.08539	8010.2879056	4	6011.06277367	True	1607400.66988	658.80961911	clone_5	spanishbook	False	5	3281.46818634	
0	mixed	62	memory	1620656.51339	1628666.68629	8010.17289791	None	None	False	0	0	color_50	lightsintv	False	correct	4782.95936214	
0	mixed	63	rating	1642607.99795	1650618.26413	8010.26617186	2	6011.01296719	True	1648902.93291	283.921985546	takeaway_45	midspeaker	False	5	1819.55082404	
0	mixed	64	search	1665958.97093	1673969.2048	8010.23387311	None	None	False	0	0	horizontal_49		False	Z	1686.91828296	
0	mixed	65	rating	1683925.35156	1691935.61622	8010.26466257	novel	6024.44592556	True	1690376.46574	426.668260474	clone_18	wine	False	5	1218.84302869	
0	mixed	66	search	1699079.51469	1707089.78629	8010.2716053	2	6011.04073808	True	1705100.82129	10.2658700047	takeaway_33		False	N	1669.79813585	
0	mixed	67	rating	1725842.4932	1733852.7799	8010.28669817	2	6024.42570111	True	1733675.67922	1808.76032579	takeaway_94	topshelf	False	7	836.97796018	
0	mixed	68	search	1744062.11683	1752072.41258	8010.29575389	novel	6011.03168235	True	1751233.38894	1160.24042342	clone_44	pillow	False	N	1809.00452847	
0	mixed	69	search	1759722.76174	1767733.01312	8010.25138085	novel	6011.03590836	False	0	0	takeaway_68	spotonshelf	False	N	2449.4132193	
0	mixed	70	memory	1775969.79192	1783980.07952	8010.28760374	4	6011.06790525	False	0	0	horizontal_20		False	correct	4727.52414709	
0	mixed	71	search	1815421.28795	1823431.47413	8010.18617964	2	6010.93931397	True	1821675.50988	243.282615245	clone_67	lightleft	False	Z	3512.67016459	
0	mixed	72	search	1837612.71055	1845622.99242	8010.28186845	novel	6011.01658948	False	0	0	color_87	picframe	False	N	2080.85342346	
0	mixed	73	memory	1854046.34478	1862056.59254	8010.24775856	2	6011.0214192	True	1860392.15599	334.789795528	horizontal_72		False	correct	1679.63778313	
0	mixed	74	memory	1878183.68992	1886193.90538	8010.21545981	None	None	False	0	0	takeaway_25	plugin	False	incorrect	1176.56095015	
0	mixed	75	memory	1896763.18347	1904773.44059	8010.25711614	2	6011.03711579	True	1902951.7182	177.497613817	clone_82	rug	False	correct	4558.74327084	
0	mixed	76	memory	1914956.15339	1922966.3933	8010.23991026	None	None	False	0	0	clone_46	xtrawine	False	correct	1856.86523453	
0	mixed	77	memory	1931682.99172	1939693.28295	8010.29122603	4	6011.12133402	False	0	0	clone_37	xtraknob	False	incorrect	11590.249944	
0	mixed	78	rating	1959405.62608	1967415.93723	8010.31114862	None	None	False	0	0	color_43	purpleright	False	6	1872.37014243	
0	mixed	79	search	1982023.61672	1990033.85814	8010.24141955	None	None	False	0	0	color_26	flowerleftchair	False	N	2248.70669176	
0	mixed	80	memory	2004908.06147	2012918.41004	8010.34857895	novel	6011.14095475	False	0	0	color_45	flowers	False	incorrect	2855.40182962	
0	mixed	81	memory	2034016.7872	2042027.13608	8010.3488808	2	6011.100204	True	2040625.91531	598.02790491	color_10	lighttent	False	correct	4825.19253977	
0	mixed	82	search	2056861.39732	2064871.6478	8010.25047527	2	6010.98730931	False	0	0	horizontal_36		False	N	2129.63056874	
0	mixed	83	rating	2073254.9485	2081265.32032	8010.37182197	4	6011.16600892	False	0	0	color_59	dressflowers	False	6	1615.65819111	
0	mixed	84	memory	2103016.90281	2111027.14785	8010.24504184	2	6011.04436037	True	2109377.74592	349.798751638	clone_73	xtrahanging	False	incorrect	4744.71281584	
0	mixed	85	memory	2139856.05475	2147866.25059	8010.19583908	4	6010.95531242	True	2147407.37927	1540.36920788	color_75	lampchord	False	incorrect	2955.70090998	
0	mixed	86	memory	2160568.05678	2168578.23511	8010.17833134	4	6010.95018084	True	2166908.25133	329.244372321	takeaway_14	sharkteeth	False	correct	4256.65218355	
0	mixed	87	rating	2183745.82486	2191756.00621	8010.18134992	None	None	False	0	0	color_82	vaseleft	False	5	2504.357916	
0	mixed	88	rating	2235419.17405	2243429.40369	8010.22964711	4	6010.95380313	False	0	0	clone_2	statueright	False	4	1099.4255049	
0	mixed	89	rating	2259356.5673	2267366.82985	8010.26254957	novel	6011.10050585	True	2266320.32871	952.660903604	horizontal_45		False	6	996.22315959	
0	mixed	90	search	2275403.73162	2283413.97576	8010.24413627	None	None	False	0	0	clone_57	xtrabushes	False	Z	1594.11432308	
0	mixed	91	search	2306018.57842	2314028.84248	8010.26405886	2	6011.0171932	False	0	0	takeaway_54	phonebutton	False	N	1680.09177674	
0	mixed	92	search	2343537.37357	2351547.71974	8010.34616409	None	None	False	0	0	color_9	chairs	False	Z	1187.20776426	
0	mixed	93	search	2358704.95215	2366715.15373	8010.20157437	4	6010.99847803	True	2364994.78088	278.830254086	takeaway_21	bear	False	Z	1739.45928879	
0	mixed	94	search	2374552.11297	2382562.36164	8010.24866413	None	None	False	0	0	color_29	cupright	False	N	1467.94424814	
0	mixed	95	rating	2389253.10415	2397263.35282	8010.24866413	2	6011.02715449	False	0	0	color_100	stereoright	False	5	3180.07758944	
0	mixed	96	memory	2407232.83171	2415243.05894	8010.22723225	None	None	False	0	0	clone_8	teapotsright	False	incorrect	14841.2519598	
0	mixed	97	rating	2438207.54511	2446217.82335	8010.27824616	None	None	False	0	0	color_18	magcolor	False	2	1606.133683	
0	mixed	98	memory	2461851.71313	2469861.99802	8010.28488702	2	6011.05734024	True	2468263.09563	400.325160845	takeaway_40	handleshadow	False	incorrect	9759.41116064	
0	mixed	99	rating	2488361.53769	2496371.89834	8010.36065324	4	6011.01568391	True	2495624.47243	1251.91905874	takeaway_48	handleleft	False	4	1096.61913619	
0	mixed	100	memory	2503368.70046	2511379.43723	8010.73676763	None	None	False	0	0	color_17	underfacet	False	incorrect	1617.73768708	
0	mixed	101	rating	2520442.47684	2528452.87552	8010.39868728	None	None	False	0	0	horizontal_73		False	5	2513.69285763	
0	mixed	102	search	2545752.70751	2553762.95467	8010.24715484	2	6011.0214192	True	2553187.43114	1423.70220917	clone_84	flushlever	False	N	1840.4227574	
0	mixed	103	search	2562692.84254	2570703.08003	8010.2374954	None	None	False	0	0	color_95	flowers	False	Z	963.982972825	
0	mixed	104	search	2578033.59372	2586043.82095	8010.22723225	4	6011.0072319	False	0	0	takeaway_22	lightleft	False	N	1422.9798643	
0	mixed	105	rating	2594027.41288	2602037.64977	8010.23689169	novel	6011.00270404	False	0	0	color_55	flowerleft	False	4	927.49957589	
0	mixed	106	memory	2618178.1128	2626188.33852	8010.22572296	2	6011.00421333	True	2624503.38443	314.267413099	horizontal_3		False	correct	2702.54574499	
0	mixed	107	memory	2637197.03745	2645207.69755	8010.66009583	novel	6011.00149661	True	2643725.23758	517.19863005	takeaway_56	chairstar	False	incorrect	2523.04711814	
0	mixed	108	memory	2659788.72182	2667798.94966	8010.22783597	4	None	False	0	0	color_51	dots	False	correct	3291.37061997	
0	mixed	109	memory	2694855.11567	2702865.4407	8010.32503406	2	6011.10382628	False	0	0	horizontal_23		False	correct	8221.39010185	
0	mixed	110	search	2719232.42541	2727242.65294	8010.22753411	novel	6011.02383406	False	0	0	clone_79	midcouch	False	N	1333.6542078	
0	mixed	111	rating	2744635.91132	2752646.23997	8010.32865635	novel	6024.42177696	False	0	0	clone_39	xtraspots	False	5	2652.32119323	
0	mixed	112	rating	2764721.55552	2772731.79845	8010.24292884	2	6024.35446275	False	0	0	horizontal_55		False	5	931.759388219	
0	mixed	113	rating	2795856.17066	2803866.43925	8010.26858672	4	6011.11378758	True	2802110.66426	243.379813343	color_44	wholepic	False	4	1860.5331044	
0	mixed	114	search	2824818.31502	2832828.58602	8010.27100158	4	6011.07575354	True	2830834.54499	5.15421595238	color_77	booksleft	False	N	625.846483753	
0	mixed	115	search	2853220.7402	2861230.98675	8010.24655113	novel	6011.07092382	False	0	0	horizontal_10		False	N	524.384044782	
0	mixed	116	search	2868214.90349	2876225.19502	8010.29152789	4	6011.09477056	True	2874580.72	354.721744784	takeaway_29	dresserknob	False	Z	4057.87724182	
0	mixed	117	memory	2886914.35731	2894924.68476	8010.32744892	None	None	False	0	0	color_41	towelleft	False	correct	4636.39398676	
0	mixed	118	memory	2917995.71423	2926005.98372	8010.26949229	novel	6011.08873341	False	0	0	takeaway_31	glass.left	False	incorrect	1277.04476727	
0	mixed	119	search	2940120.40852	2948130.77914	8010.37061454	4	6011.14155847	False	0	0	clone_13	xtrapillow	False	N	1015.05483844	
