blocknr	blocktype	trialnr	trialtype	trialstart	trialend	duration	probeNback	probeonset	probefixated	probefixtime	probeRT	imagename	imagechange	filler	response	RT	
0	blocked	0	rating	274516.666511	280714.248888	6197.58237718	4	6011.0322228	True	280532.971851	5.27311754471	horizontal_67		False	7	4510.30097732	
0	blocked	1	rating	293642.534308	293775.749576	133.2152675	novel	None	False	0	0	horizontal_30		False	5	1416.57628603	
0	blocked	2	rating	305211.351828	313221.537647	8010.18581936	2	6010.93985495	True	311399.639162	177.347479097	horizontal_57		False	4	3191.75716553	
0	blocked	3	rating	322644.524141	330654.77818	8010.25403875	None	None	False	0	0	color_91	cup	False	6	1280.88640535	
0	blocked	4	rating	343969.472124	351979.681186	8010.20906225	novel	6011.00686692	False	0	0	color_87	picframe	False	4	2051.36165605	
0	blocked	5	rating	367960.098598	375970.288342	8010.18974349	novel	6011.00747063	True	374396.614266	425.508196741	color_49	spacepink	False	7	1145.580787	
0	blocked	6	rating	384566.920658	392577.104365	8010.18370637	novel	6010.98543516	True	390983.441403	405.535309422	horizontal_24		False	6	1412.99235309	
0	blocked	7	rating	399734.318973	407744.561843	8010.24287009	4	6010.98452959	True	406383.267413	637.963910734	clone_46	xtrawine	False	7	1013.26323841	
0	blocked	8	rating	419033.442897	427043.62117	8010.17827297	4	6010.99147227	True	425267.46107	223.026701251	clone_70	cabnethandleright	False	5	1023.06871957	
0	blocked	9	rating	433960.941077	441971.059583	8010.11850554	novel	6024.24927728	True	440253.715467	268.52511183	clone_89	piconshelf	False	5	1727.26883059	
0	blocked	10	rating	452886.787202	460896.986001	8010.19879916	4	6010.93804381	False	0	0	color_44	wholepic	False	7	720.928049369	
0	blocked	11	rating	467427.764568	475437.949784	8010.18521565	4	6010.9926797	True	473783.326456	344.569208121	horizontal_5		False	6	2939.54343115	
0	blocked	12	rating	484074.616621	492084.74388	8010.12725935	2	6010.94226979	True	490354.076758	268.517867293	clone_85	glassontable	False	6	1420.37876252	
0	blocked	13	rating	501481.131452	509491.266258	8010.13480575	None	None	False	0	0	takeaway_63	ovenlogo	False	6	1045.46701758	
0	blocked	14	rating	517621.462666	525631.607131	8010.14446513	novel	6010.97064423	False	0	0	horizontal_79		False	6	4099.25951774	
0	blocked	15	rating	535694.394932	543704.565356	8010.17042472	2	6010.94377907	True	541867.627514	162.288802873	takeaway_70	sceneryabovecouch	False	7	655.389437646	
0	blocked	16	rating	562697.20551	570707.35722	8010.15170967	novel	6010.94921247	True	568941.146889	232.992165939	takeaway_93	statueheadleft	False	6	1326.67580485	
0	blocked	17	rating	580170.276207	588180.495834	8010.2196272	2	6010.93321412	True	586545.71137	364.50194863	color_6	wholecolor	False	7	1234.25482841	
0	blocked	18	rating	598136.610842	606146.784588	8010.17374513	2	6010.95706072	True	604588.275743	440.707839585	clone_23	outlet.tv	False	7	1366.38824501	
0	blocked	19	rating	614690.097412	622700.28142	8010.18400823	novel	6010.94166608	True	621207.717485	506.678406842	color_66	painting	False	5	1665.85386984	
0	blocked	20	rating	630377.315724	638387.519353	8010.20362885	2	6010.9612867	True	636763.239769	374.962758551	horizontal_44		False	7	1868.89319469	
0	blocked	21	rating	648156.995763	656167.249802	8010.25403875	None	None	False	0	0	horizontal_40		False	3	1760.79383224	
0	blocked	22	rating	664190.693426	672200.86536	8010.171934	4	6011.01350774	True	670500.666045	298.959110926	takeaway_28	ovenknob	False	3	574.688311332	
0	blocked	23	rating	679144.49954	687155.03521	8010.53567014	2	6011.37241419	True	685910.478348	754.606393727	takeaway_79	cabnetcrack	False	5	1484.22245438	
0	blocked	24	rating	694285.608938	702295.786004	8010.17706555	2	6010.98845372	True	700838.758636	542.161244684	takeaway_19	headboard	False	5	1116.19483096	
0	blocked	25	rating	708879.893723	716890.140215	8010.24649236	2	6010.97788877	True	715199.88614	309.014528617	takeaway_22	lightleft	False	7	1289.87295195	
0	blocked	26	rating	724087.308144	732097.456232	8010.1480874	2	6010.93291226	True	730336.39737	238.156313569	takeaway_61	fanlever	False	7	610.094779677	
0	blocked	27	rating	738321.733521	746331.889457	8010.15593565	2	6010.99992423	True	745057.326023	724.59257779	horizontal_10		False	4	1881.90347801	
0	blocked	28	rating	754608.698999	762618.84286	8010.14386142	4	6010.93502525	True	761358.98463	739.350605719	color_28	vase	False	3	954.631085524	
0	blocked	29	rating	769896.052965	777906.199543	8010.14657812	None	None	False	0	0	color_10	lighttent	False	5	1344.25437261	
0	blocked	30	rating	784730.192001	792740.389291	8010.19728988	novel	6011.02045042	True	791334.019351	592.806898973	color_16	flowersleft	False	4	936.389944462	
0	blocked	31	rating	799724.305815	807734.536913	8010.23109772	4	6011.07599188	True	806004.022227	268.640420714	color_89	garlic	False	7	1325.93263607	
0	blocked	32	rating	814638.508458	822648.688543	8010.1800841	4	6010.93834567	True	821034.315562	384.868757662	clone_9	bookshelf	False	5	899.383037097	
0	blocked	33	memory	829046.193282	837056.387554	8010.19427132	2	6010.9217436	True	835350.928101	293.813074639	takeaway_26	belowlightleft	False	incorrect	11336.3584307	
0	blocked	34	memory	854102.98653	862113.360708	8010.37417733	2	6011.15447436	False	0	0	takeaway_18	hanginglightright	False	incorrect	14174.9495373	
0	blocked	35	memory	884651.110029	892661.247552	8010.13752245	None	None	False	0	0	takeaway_84	outlet	False	correct	7650.33154323	
0	blocked	36	memory	909388.11431	917398.210177	8010.09586636	4	6010.8951803	True	915616.777563	217.768072781	takeaway_12	light	False	incorrect	12808.614117	
0	blocked	37	memory	936777.378691	944787.542777	8010.16408575	4	6010.93593082	True	943016.401029	228.086406803	takeaway_39	light	False	correct	3266.73178701	
0	blocked	38	memory	956396.336558	964406.619877	8010.28331876	4	6010.93079927	False	0	0	clone_39	xtraspots	False	incorrect	14559.2671064	
0	blocked	39	memory	984425.3461	992435.507167	8010.16106719	4	6010.94830691	True	990745.38772	309.09331296	horizontal_20		False	incorrect	1713.68743625	
0	blocked	40	memory	1001218.82396	1009228.94488	8010.12092038	2	6010.93864752	True	1007548.99073	319.228118705	takeaway_29	dresserknob	False	incorrect	7199.87255652	
0	blocked	41	memory	1022317.1423	1030327.13885	8009.99655583	None	None	False	0	0	horizontal_71		False	incorrect	3405.14863225	
0	blocked	42	memory	1042295.9807	1050306.25859	8010.27788536	2	6010.98452959	True	1048312.14447	5.1792404165	horizontal_69		False	incorrect	3185.81845612	
0	blocked	43	memory	1059622.61817	1067632.80339	8010.18521565	2	6010.94166608	False	0	0	clone_3	candle	False	correct	8562.83805954	
0	blocked	44	memory	1082333.68399	1090343.91328	8010.22928659	None	None	False	0	0	horizontal_27		False	incorrect	2067.24017241	
0	blocked	45	memory	1098860.54507	1106870.74025	8010.19517689	2	6011.00988547	True	1105059.01642	187.461456798	takeaway_68	spotonshelf	False	incorrect	3324.02581349	
0	blocked	46	memory	1115907.20925	1123917.42978	8010.22053277	4	6011.0110929	True	1122095.45523	177.234886914	color_31	mid.light	False	incorrect	2887.53701128	
0	blocked	47	memory	1132554.04772	1140564.24924	8010.20151586	None	None	False	0	0	color_29	cupright	False	incorrect	8068.0684645	
0	blocked	48	memory	1158064.03205	1166074.26737	8010.2353237	novel	6011.02860053	True	1164176.43316	101.372507766	color_84	painting	False	correct	8037.26952184	
0	blocked	49	memory	1180748.45367	1188758.62862	8010.17495256	2	6011.01471516	True	1187291.24036	531.771974568	horizontal_4		False	incorrect	2435.26296614	
0	blocked	50	memory	1198634.45695	1206645.08378	8010.62683057	novel	6011.35279357	True	1205213.05158	567.241832614	color_39	painting	False	correct	14156.2767425	
0	blocked	51	memory	1227876.68651	1235886.91489	8010.22838102	None	None	False	0	0	horizontal_68		False	incorrect	1548.48029229	
0	blocked	52	memory	1246816.0289	1254826.19661	8010.16770802	None	None	False	0	0	horizontal_16		False	incorrect	2747.40260701	
0	blocked	53	memory	1264475.75359	1272485.92764	8010.17404699	4	6010.94076051	True	1270876.84106	390.146704898	takeaway_62	midwindow	False	incorrect	7129.76626406	
0	blocked	54	memory	1287160.14895	1295170.34262	8010.19366761	4	6011.02014857	True	1293363.73825	192.569157409	horizontal_26		False	correct	6157.03138183	
0	blocked	55	memory	1309564.69568	1317574.95213	8010.2564536	novel	6011.03463764	False	0	0	clone_99	light	False	incorrect	5938.63243059	
0	blocked	56	memory	1330783.04603	1338793.32331	8010.27728164	4	6011.05667311	True	1338708.2323	1914.12959451	clone_61	towel	False	correct	6031.75069374	
0	blocked	57	memory	1352494.7382	1360504.84765	8010.10944987	2	6010.83118689	True	1358698.17749	192.608096797	takeaway_100	cabnet	False	correct	12004.9323224	
0	blocked	58	memory	1380217.10942	1388227.35501	8010.24558679	novel	6011.02709125	False	0	0	color_100	stereoright	False	incorrect	2492.73116337	
0	blocked	59	memory	1399342.96696	1407353.16606	8010.19910101	novel	6011.02528011	False	0	0	clone_76	window	False	correct	10582.239534	
0	blocked	60	memory	1425626.00982	1433636.24756	8010.23773855	novel	6011.03041166	True	1432148.48132	511.441086367	horizontal_66		False	correct	1810.79864684	
0	blocked	61	memory	1443032.54518	1451042.8451	8010.29992082	None	None	False	0	0	clone_93	leftcrack	False	correct	6011.78052312	
0	blocked	62	memory	1464264.33898	1472274.47408	8010.1351076	None	None	False	0	0	clone_94	bottononwheel	False	correct	8445.94684743	
0	blocked	63	memory	1489454.43594	1497464.69843	8010.26249071	4	6010.97487021	True	1495658.03218	192.621378448	horizontal_11		False	correct	1788.73239011	
0	blocked	64	memory	1507247.49814	1515257.71475	8010.21660865	novel	6011.00324465	False	0	0	color_85	mouse	False	incorrect	8800.69704522	
0	blocked	65	memory	1531478.01509	1539488.25223	8010.23713483	novel	6024.33651358	True	1538125.34046	622.988848544	color_56	book	False	correct	5870.85887913	
0	blocked	66	search	1553043.01021	1561052.88844	8009.87822838	None	None	False	0	0	takeaway_55	vase	False	N	2251.13701503	
0	blocked	67	search	1568943.37821	1576953.28028	8009.90207499	novel	6024.28519811	True	1575423.48818	455.824773963	clone_1	knobonoven	False	Z	806.604059778	
0	blocked	68	search	1583990.83717	1592001.01333	8010.17615998	4	6010.89880257	False	0	0	horizontal_70		False	N	1054.54412089	
0	blocked	69	search	1598331.55108	1606342.07075	8010.51967179	2	6011.2830649	True	1604641.76518	298.931038344	horizontal_13		False	Z	921.142004702	
0	blocked	70	search	1612726.20992	1620736.4054	8010.19547874	4	6011.01622444	False	0	0	color_27	pillowleft	False	Z	1398.38525302	
0	blocked	71	search	1627906.93698	1635917.22452	8010.28754474	None	None	False	0	0	color_46	lemon	False	N	1358.69001863	
0	blocked	72	search	1644073.98846	1652084.28144	8010.29297814	None	None	False	0	0	horizontal_22		False	N	489.967674271	
0	blocked	73	search	1657948.62808	1665958.75987	8010.13178719	4	6024.23810862	False	0	0	takeaway_71	stickerdesk	False	N	2183.01572578	
0	blocked	74	search	1673329.23524	1681339.41563	8010.18038596	novel	6011.03584506	False	0	0	color_59	dressflowers	False	Z	1335.35355304	
0	blocked	75	search	1693987.79658	1701997.99507	8010.1984973	4	6011.00867805	True	1700206.61813	207.812871188	takeaway_7	drawerhandles	False	Z	926.96268852	
0	blocked	76	search	1708648.77759	1716658.91572	8010.13812616	novel	6010.91842319	False	0	0	horizontal_3		False	Z	585.70272464	
0	blocked	77	search	1722736.56236	1730746.80644	8010.24407752	4	6010.92687515	True	1728919.73385	172.244608178	horizontal_48		False	N	1105.51879791	
0	blocked	78	search	1742088.97922	1750099.17983	8010.20061029	2	6011.00445207	True	1748120.35531	20.3716387234	horizontal_31		False	N	1072.55977573	
0	blocked	79	search	1756483.42163	1764493.54678	8010.12514636	4	6010.92355474	True	1762944.95963	450.614442408	takeaway_64	plant	False	N	1307.30330855	
0	blocked	80	search	1772717.03502	1780727.2308	8010.1957806	2	6011.02799682	True	1778733.2827	5.21968908235	color_33	chairmiddle	False	Z	1041.28027877	
0	blocked	81	search	1794415.179	1802425.39591	8010.2169105	None	None	False	0	0	clone_7	xtralight	False	N	1649.27414265	
0	blocked	82	search	1820178.43597	1828188.71537	8010.27939463	2	6011.00233908	True	1826235.15104	45.7127281385	horizontal_49		False	Z	1109.40790699	
0	blocked	83	search	1834879.34102	1842889.47915	8010.13812616	novel	6011.02407269	True	1841234.94729	344.582187917	takeaway_57	lineinlight	False	N	989.490591308	
0	blocked	84	search	1852205.90605	1860216.11541	8010.20936411	2	6010.90302855	True	1858221.92734	5.11826556106	clone_31	vase	False	Z	857.228282311	
0	blocked	85	search	1866586.93641	1874597.12525	8010.18883792	novel	6010.89457659	False	0	0	color_79	bookright	False	Z	1347.80510142	
0	blocked	86	search	1881594.39828	1889604.61912	8010.22083462	novel	6010.9163102	False	0	0	takeaway_58	drawerhandle	False	Z	1115.9832301	
0	blocked	87	search	1901546.5457	1909556.78253	8010.23683298	4	6010.99298155	False	0	0	clone_86	pilarceililng	False	N	1883.32763329	
0	blocked	88	search	1917087.14876	1917180.4083	93.2595316225	novel	None	False	0	0	horizontal_21		False	Z	968.524598675	
0	blocked	89	search	1924670.89577	1932681.15524	8010.25947216	None	None	False	0	0	color_35	v	False	Z	926.566653818	
0	blocked	90	search	1946222.48215	1954232.63175	8010.14959668	None	None	False	0	0	horizontal_76		False	Z	1147.82025458	
0	blocked	91	search	1962522.71781	1970532.9474	8010.22958844	2	6011.1248925	True	1969562.47191	1028.62920376	clone_14	corner	False	N	833.773187424	
0	blocked	92	search	1987379.64484	1995389.80531	8010.16046348	4	6024.30632801	False	0	0	color_26	flowerleftchair	False	N	1.86275163828	
0	blocked	93	search	2003893.2125	2011903.37991	8010.16740616	None	None	False	0	0	horizontal_60		False	Z	806.353217676	
0	blocked	94	search	2022166.04268	2023445.53421	1279.49153008	novel	None	False	0	0	takeaway_73	cabnethandle	False	Z	815.920534671	
0	blocked	95	search	2030656.25214	2038666.27858	8010.02643954	None	None	False	0	0	horizontal_65		False	Z	618.828371178	
0	blocked	96	search	2050088.44161	2058098.57551	8010.13390018	novel	6024.32625049	False	0	0	color_34	IAcolor	False	N	823.28370121	
0	blocked	97	search	2084048.51153	2092058.80119	8010.28965773	None	None	False	0	0	clone_96	NtoMinPoster	False	Z	921.187584916	
0	blocked	98	search	2099309.13527	2107319.31264	8010.1773674	2	6010.95977742	False	0	0	clone_44	pillow	False	N	860.183449794	
