blocknr	blocktype	trialnr	trialtype	trialstart	trialend	duration	probeNback	probeonset	probefixated	probefixtime	probeRT	imagename	imagechange	filler	response	RT	
0	mixed	0	rating	64598.9760361	72609.2253349	8010.24929878	novel	6011.04650671	True	70873.5418732	263.519330406	color_99	thermlid	False	6	2562.4418168	
0	mixed	1	rating	92001.7897182	100012.068599	8010.2788809	2	6011.05858105	True	98018.0964087	5.24810946108	takeaway_91	table	False	2	2689.82393206	
0	mixed	2	search	122470.143491	130480.405166	8010.26167498	2	6010.98251274	True	128592.733001	111.606997318	horizontal_70		False	Z	2157.04030292	
0	mixed	3	search	142435.826422	150446.054892	8010.22847056	2	6011.00334097	True	149120.414621	673.584857819	color_26	flowerleftchair	False	N	735.093328568	
0	mixed	4	search	169625.395284	177635.644582	8010.24929878	None	None	False	0	0	horizontal_54		False	Z	1878.40239651	
0	mixed	5	search	192349.999336	200360.294517	8010.29518125	2	6011.04016769	True	198366.186792	5.14728876861	color_19	pillowbottom	False	N	1204.13081092	
0	mixed	6	memory	209583.407087	217593.596316	8010.18922897	4	6011.09329476	True	215868.032053	273.531670375	horizontal_76		False	correct	2063.7757289	
0	mixed	7	search	233214.335133	241224.616429	8010.28129577	None	None	False	0	0	takeaway_33		False	N	2848.52022994	
0	mixed	8	search	251633.96625	259644.181137	8010.21488693	novel	6011.00635955	True	259169.500412	1524.52780297	clone_32	shelf	False	Z	847.285931106	
0	mixed	9	memory	278676.97684	286687.212555	8010.23571516	novel	6010.98945548	False	0	0	horizontal_64		False	correct	3067.87798402	
0	mixed	10	search	306906.067112	314916.399421	8010.33230983	novel	6011.0603922	False	0	0	takeaway_60	lampsonwall	False	N	926.382782965	
0	mixed	11	rating	322939.989652	330950.247705	8010.25805268	novel	6010.97979602	True	329538.678923	587.70947461	color_85	mouse	False	4	1358.94792702	
0	mixed	12	rating	339293.677999	347303.97801	8010.30001099	2	6011.08816317	False	0	0	horizontal_8		False	4	882.178040891	
0	mixed	13	search	356020.662507	364030.912409	8010.2499025	novel	6010.9610808	False	0	0	takeaway_2	candles	False	N	1000.47301205	
0	mixed	14	rating	370774.946782	378785.255547	8010.30876488	novel	6011.1219713	True	376943.260288	157.19153396	color_56	book	False	4	2152.48526026	
0	mixed	15	memory	388088.274855	396098.594185	8010.31932992	novel	6011.10899139	False	0	0	horizontal_74		False	correct	3358.89419623	
0	mixed	16	memory	406561.317093	414571.551298	8010.23420587	4	6010.9538362	False	0	0	color_86	buildingoutside	False	correct	8344.28093112	
0	mixed	17	rating	429325.89021	437336.147358	8010.2571471	None	None	False	0	0	takeaway_78	floweronwallright	False	4	3171.49116823	
0	mixed	18	search	448998.371172	457008.607189	8010.23601702	2	6010.98009787	False	0	0	takeaway_10	leftoflight	False	Z	1765.49620081	
0	mixed	19	search	469563.786294	477574.164486	8010.3781923	None	None	False	0	0	color_59	dressflowers	False	N	1303.65170133	
0	mixed	20	memory	486117.430147	494127.711443	8010.28129577	novel	6011.03594167	False	0	0	color_37	redtogreenright	False	incorrect	13432.2536262	
0	mixed	21	memory	515399.542443	523409.810155	8010.26771214	None	None	False	0	0	color_30	chairsright	False	incorrect	1509.61660366	
0	mixed	22	memory	537537.758255	545548.007554	8010.24929878	4	6011.02567849	True	543701.082343	152.298409931	clone_91	platesonwall	False	correct	2315.34871282	
0	mixed	23	rating	570951.623575	578961.878911	8010.25533595	2	6011.0422807	True	577302.3845	339.718643859	horizontal_26		False	4	2509.01439623	
0	mixed	24	search	596008.66907	604018.931953	8010.26288241	novel	6011.02024504	False	0	0	takeaway_65	rugcorner	False	N	1195.57252268	
0	mixed	25	memory	646789.23887	654799.492697	8010.25382666	None	None	False	0	0	color_18	magcolor	False	correct	1310.10211265	
0	mixed	26	rating	666967.844538	674978.418636	8010.57409838	None	None	False	0	0	takeaway_41	leftdrawerhandle	False	5	1835.01267201	
0	mixed	27	search	683948.282305	691958.564808	8010.2825032	novel	6011.07065538	False	0	0	color_55	flowerleft	False	Z	2779.97815753	
0	mixed	28	memory	701821.432668	709831.720907	8010.28823851	2	6011.07578697	True	707837.749018	5.24056300207	takeaway_19	headboard	False	correct	2269.21147352	
0	mixed	29	search	720947.507435	728957.731377	8010.22394268	novel	6010.97768301	False	0	0	horizontal_31		False	N	1582.96305374	
0	mixed	30	search	738594.006844	746604.282706	8010.27586232	novel	6011.01964132	False	0	0	clone_10	vase	False	N	789.554915884	
0	mixed	31	rating	755054.287717	763064.657759	8010.37004213	novel	6011.14853484	True	762838.0222	1772.58594813	takeaway_61	fanlever	False	4	1286.26707462	
0	mixed	32	rating	772061.202085	780071.479154	8010.27706975	None	None	False	0	0	takeaway_74	sprinkler	False	4	1940.48500187	
0	mixed	33	memory	792106.825259	800117.123157	8010.29789798	novel	6011.04982716	True	798325.631518	207.756431696	clone_19	plant	False	incorrect	1966.45689523	
0	mixed	34	search	807847.51806	815857.756492	8010.23843188	4	6010.95806221	True	814157.690808	299.214685289	horizontal_66		False	Z	1727.03703078	
0	mixed	35	rating	829092.629162	837102.956642	8010.3274801	2	6011.08846503	False	0	0	clone_85	glassontable	False	5	964.21016345	
0	mixed	36	memory	843660.412665	851670.740145	8010.3274801	novel	6011.12891405	True	851221.337945	1549.79636635	takeaway_77	light	False	correct	4556.02702478	
0	mixed	37	rating	862746.401848	870756.749855	8010.34800647	novel	6011.1074821	False	0	0	horizontal_61		False	5	2885.88576714	
0	mixed	38	search	881006.128932	889016.46909	8010.34015815	None	None	False	0	0	color_94	fruit	False	N	1863.41935492	
0	mixed	39	rating	897079.968619	905090.227879	8010.25926011	4	None	False	0	0	horizontal_22		False	5	2351.9161365	
0	mixed	40	rating	912753.932913	920764.248016	8010.31510391	None	None	False	0	0	takeaway_56	chairstar	False	5	2045.72127848	
0	mixed	41	memory	928774.464715	936784.726088	8010.26137312	2	6011.16513705	True	935060.031176	274.401324313	takeaway_36	backwindowbuildings	False	incorrect	1544.93886161	
0	mixed	42	memory	943742.049956	951752.358419	8010.30846302	4	None	False	0	0	clone_7	xtralight	False	incorrect	4736.91806236	
0	mixed	43	search	962001.733573	970012.073731	8010.34015815	2	None	False	0	0	horizontal_6		False	N	1738.47021805	
0	mixed	44	memory	977782.361933	985792.633871	8010.27193816	2	6011.02658406	False	0	0	clone_94	bottononwheel	False	incorrect	7066.88607745	
0	mixed	45	search	1019433.04751	1027443.41907	8010.37155142	None	None	False	0	0	takeaway_8	ventonfireplace	False	N	1026.37638357	
0	mixed	46	rating	1041744.50105	1049754.76302	8010.26197683	novel	6011.07669255	False	0	0	clone_6	bottomrightobject	False	5	2181.27017168	
0	mixed	47	rating	1059750.96836	1067761.26928	8010.30091656	2	None	False	0	0	takeaway_7	drawerhandles	False	5	1774.54410332	
0	mixed	48	rating	1082462.20462	1090472.51217	8010.30755745	novel	6011.09601148	False	0	0	horizontal_45		False	5	766.976212354	
0	mixed	49	memory	1097323.19975	1105333.53508	8010.33532842	4	None	False	0	0	color_24	potsleft	False	correct	4418.95374685	
0	mixed	50	search	1120181.0797	1128191.36824	8010.28854037	None	None	False	0	0	clone_80	statue	False	Z	988.218166319	
0	mixed	51	memory	1136228.28763	1144238.59126	8010.30363329	4	None	False	0	0	takeaway_71	stickerdesk	False	correct	1115.71136545	
0	mixed	52	memory	1154328.03491	1162338.39137	8010.3564585	2	None	False	0	0	clone_70	cabnethandleright	False	incorrect	641.513312557	
0	mixed	53	search	1169362.29161	1177372.6043	8010.31268904	2	None	False	0	0	color_8	paintingright	False	N	1183.0019331	
0	mixed	54	rating	1184783.01214	1192793.35411	8010.3419693	4	None	False	0	0	clone_15	xtracupx2	False	6	1636.62139596	
0	mixed	55	rating	1201616.57015	1209626.83243	8010.26227869	2	None	False	0	0	takeaway_55	vase	False	6	933.532901958	
0	mixed	56	search	1218170.28253	1226180.47508	8010.19254941	2	None	False	0	0	horizontal_59		False	Z	2246.32668561	
0	mixed	57	memory	1238469.12593	1246479.44103	8010.31510391	2	6011.05194016	True	1245361.93844	881.760570778	clone_27	bottomshelf	False	correct	758.986323401	
0	mixed	58	memory	1254769.4916	1262779.8224	8010.33080054	4	6011.04016769	True	1261767.74746	987.215694703	horizontal_81		False	correct	2242.24948473	
0	mixed	59	search	1273868.81719	1281879.183	8010.36581611	4	6011.13495121	False	0	0	clone_20	chair	False	Z	1042.877169	
0	mixed	60	memory	1292848.33066	1300858.58207	8010.25141179	4	6011.01873574	False	0	0	color_16	flowersleft	False	correct	800.302884679	
0	mixed	61	rating	1311774.40374	1319784.70888	8010.30514258	2	None	False	0	0	clone_9	bookshelf	False	5	1303.59917798	
0	mixed	62	search	1327008.53172	1335018.88999	8010.35826965	2	None	False	0	0	clone_45	dressknob	False	N	1222.50251448	
0	mixed	63	rating	1346201.21395	1354211.49555	8010.28159763	None	None	False	0	0	color_83	artbehindtable	False	6	1464.16820514	
0	mixed	64	rating	1362768.21504	1370778.53648	8010.32144293	2	None	False	0	0	color_13	wheelsleft	False	4	1960.912059	
0	mixed	65	rating	1381747.5797	1389757.82839	8010.24869507	novel	6011.04288441	False	0	0	color_97	vase	False	6	1381.24892086	
0	mixed	66	memory	1402339.68514	1410349.99722	8010.31208532	None	None	False	0	0	clone_71	cupsshelf	False	correct	1827.31437824	
0	mixed	67	memory	1425717.37002	1433727.60392	8010.23390401	novel	6011.08272972	True	1432022.3674	293.914656189	color_92	windows	False	correct	4203.67319365	
0	mixed	68	rating	1445389.8226	1453400.13952	8010.31691506	4	6011.05435503	True	1452424.20306	1023.32610483	takeaway_46	outletbydoor	False	6	1576.87728733	
0	mixed	69	search	1467114.89363	1475125.17674	8010.28310692	novel	6011.05254388	False	0	0	takeaway_48	handleleft	False	Z	1500.71027272	
0	mixed	70	search	1496170.48145	1504180.71958	8010.23813002	4	6010.98522947	False	0	0	color_84	painting	False	N	978.112250258	
0	mixed	71	memory	1524999.39417	1533009.70475	8010.31057603	4	None	False	0	0	horizontal_16		False	correct	6765.83247102	
0	mixed	72	memory	1587122.23966	1595132.53906	8010.29940727	2	None	False	0	0	horizontal_15		False	correct	1175.21791155	
0	mixed	73	memory	1603662.47889	1611672.91202	8010.43313052	novel	6011.14642183	False	0	0	takeaway_49	chairlegs	False	correct	1978.66102876	
0	mixed	74	search	1621482.45811	1629492.72159	8010.26348613	4	None	False	0	0	color_21	checkers	False	N	1744.37215272	
0	mixed	75	rating	1636783.22344	1644793.5002	8010.27676789	None	None	False	0	0	color_38	bottleright	False	4	1029.84503799	
0	mixed	76	rating	1651950.77384	1659961.07808	8010.304237	2	6011.04560114	False	0	0	horizontal_55		False	5	1462.15571545	
0	mixed	77	rating	1667038.2853	1675048.5995	8010.31419833	4	None	False	0	0	horizontal_23		False	3	1054.37193538	
0	mixed	78	memory	1682645.57301	1690655.95029	8010.37728673	2	None	False	0	0	color_3	lights	False	correct	1112.1080822	
0	mixed	79	rating	1699745.77942	1707756.03415	8010.25473223	novel	6011.08272972	False	0	0	color_48	lightorbs	False	6	2414.67731945	
0	mixed	80	search	1718525.23536	1726535.56978	8010.33442284	2	None	False	0	0	horizontal_25		False	Z	692.027498089	
0	mixed	81	search	1733132.99245	1741143.30363	8010.31117975	novel	6011.03775282	False	0	0	clone_75	plates	False	Z	1068.03313922	
0	mixed	82	search	1747980.64424	1755990.99345	8010.3492139	4	None	False	0	0	clone_69	hangingspat	False	Z	1612.23425899	
0	mixed	83	memory	1763428.04874	1771438.32309	8010.27435303	4	None	False	0	0	clone_55	darklightright	False	correct	1426.86998236	
0	mixed	84	memory	1785126.40047	1792696.81195	7570.41148124	4	7037.32237145	False	0	0	color_23	bluebooks	False	correct	1154.75644256	
0	mixed	85	rating	1801653.12761	1809663.67938	8010.55176086	novel	6011.34806322	False	0	0	color_33	chairmiddle	False	5	665.647492221	
0	mixed	86	memory	1816780.95527	1824791.26072	8010.30544444	novel	6011.04137512	False	0	0	clone_29	topshelf	False	correct	957.173543201	
0	mixed	87	rating	1836760.09113	1844770.2882	8010.19707729	4	None	False	0	0	horizontal_72		False	5	3258.22986635	
0	mixed	88	search	1853940.05999	1861950.33464	8010.27465489	novel	6011.08152228	False	0	0	color_79	bookright	False	N	1027.28346794	
0	mixed	89	rating	1869054.26628	1877064.52675	8010.26046754	novel	6011.09691706	False	0	0	color_32	bookabovetv	False	6	1651.48399607	
0	mixed	90	memory	1887820.40575	1895830.67648	8010.27073073	novel	6011.07276839	False	0	0	horizontal_79		False	incorrect	1047.29637541	
0	mixed	91	rating	1908239.26531	1916249.58374	8010.31842435	4	None	False	0	0	clone_26	statue	False	6	1089.9438302	
0	mixed	92	memory	1924286.51943	1932296.69779	8010.17836207	novel	6010.9900592	False	0	0	horizontal_3		False	incorrect	729.035031267	
0	mixed	93	memory	1941559.88538	1949570.0894	8010.20402003	4	7650.41511562	True	1949296.53569	86.2351983751	takeaway_57	lineinlight	False	correct	1260.74857251	
0	mixed	94	rating	1964018.01008	1972028.16339	8010.15330782	4	None	False	0	0	color_6	wholecolor	False	5	1374.47159694	
0	mixed	95	memory	1983077.25763	1991087.54315	8010.28552179	4	None	False	0	0	clone_72	spotceilling	False	correct	694.715546792	
0	mixed	96	search	1999124.45258	2007134.73931	8010.28672922	novel	6011.05707176	False	0	0	color_58	peppers	False	N	1648.74251844	
0	mixed	97	memory	2030179.23565	2038189.55769	8010.32204665	None	None	False	0	0	clone_64	xtraglass	False	incorrect	8898.42043557	
0	mixed	98	search	2056795.7252	2064806.03095	8010.3057463	4	None	False	0	0	color_7	greenonleft	False	N	616.653767253	
0	mixed	99	rating	2071789.96635	2079800.28266	8010.31631134	4	None	False	0	0	horizontal_7		False	7	808.828270363	
0	mixed	100	memory	2086784.23859	2094794.5395	8010.30091656	novel	6011.08061671	False	0	0	takeaway_44	lightorangeright	False	incorrect	1914.12763537	
0	mixed	101	rating	2106416.72422	2114427.00914	8010.28491807	None	None	False	0	0	color_17	underfacet	False	4	1389.58021161	
0	mixed	102	search	2146361.4132	2154371.66975	8010.25654338	2	6011.06129777	True	2152863.94187	491.467369715	takeaway_93	statueheadleft	False	Z	1732.3035536	
0	mixed	103	memory	2161675.58859	2169685.45634	8009.86774981	None	None	False	0	0	clone_67	lightleft	False	incorrect	697.706057573	
0	mixed	104	memory	2182161.02574	2190171.34447	8010.31872621	novel	6011.10325609	True	2188410.15941	238.030410419	takeaway_27	reflection	False	correct	842.652405268	
0	mixed	105	memory	2205552.22723	2213562.37782	8010.1505911	novel	6010.87233444	False	0	0	color_1	oranges	False	correct	692.595293666	
0	mixed	106	rating	2225304.57629	2233314.83646	8010.26016568	2	6011.00334097	False	0	0	color_2	bookbinding	False	6	918.772329973	
0	mixed	107	memory	2250175.04102	2258185.2544	8010.21337764	None	None	False	0	0	horizontal_73		False	correct	1584.43250024	
0	mixed	108	rating	2273259.49586	2281269.74848	8010.25261923	4	6024.40766334	False	0	0	horizontal_60		False	3	760.416226456	
0	mixed	109	rating	2287787.29702	2295797.49892	8010.20190702	2	6024.32344486	True	2294009.36757	197.74711031	horizontal_19		False	5	1131.07414487	
0	mixed	110	memory	2303021.41081	2311031.67671	8010.26590099	2	6011.05918477	True	2309037.66528	5.1952842474	takeaway_31	glass.left	False	incorrect	1244.46059722	
0	mixed	111	search	2319668.43757	2327678.69985	8010.26227869	4	6010.9305931	True	2326231.36991	552.001743534	horizontal_9		False	N	1444.23589386	
0	mixed	112	rating	2336435.28127	2344445.6175	8010.33623399	4	6011.05616618	True	2342968.2282	521.890768326	color_25	hangingcandle	False	4	1671.68647059	
0	mixed	113	search	2352549.12141	2360559.42323	8010.30182214	2	6011.03413052	True	2358768.02276	207.867213715	color_100	stereoright	False	Z	1589.64921644	
0	mixed	114	search	2367503.45417	2375513.65124	8010.19707729	4	6011.01300044	True	2374770.29243	1255.82526265	horizontal_53		False	Z	568.486832335	
0	mixed	115	search	2381831.25061	2389841.54941	8010.29880355	novel	6011.05405317	True	2388961.62535	1119.32068587	takeaway_68	spotonshelf	False	N	1448.41814145	
0	mixed	116	rating	2397945.04004	2405955.33311	8010.29306825	4	6011.0712591	True	2405603.47131	1647.36000715	takeaway_43	reflectionlightlefttele	False	6	1299.71305344	
0	mixed	117	search	2412405.96297	2420416.48304	8010.52006573	2	6011.29433243	True	2418599.62684	182.369539835	color_9	chairs	False	Z	1459.71217202	
0	mixed	118	search	2427653.70809	2435663.97339	8010.26529728	2	6010.96228823	True	2435416.93582	1752.265447	clone_17	dot	False	N	1209.33696207	
0	mixed	119	search	2447699.33941	2455709.65542	8010.31600948	4	6011.02084875	True	2455432.45225	1722.09198711	takeaway_42	lights	False	Z	915.363745362	
