blocknr	blocktype	trialnr	trialtype	trialstart	trialend	duration	probeNback	probeonset	probefixated	probefixtime	probeRT	imagename	imagechange	filler	response	RT	
0	blocked	0	rating	202929.343321	210939.682543	8010.33922136	None	None	False	0	0	clone_43	butterflyright	False	7	1832.49688634	
0	blocked	1	rating	219016.454551	227026.724346	8010.26979415	None	None	False	0	0	takeaway_61	fanlever	False	7	1457.05685364	
0	blocked	2	rating	235356.769546	243367.043264	8010.2737183	4	6011.09627985	True	241828.658467	460.79264144	color_24	potsleft	False	7	1476.41738675	
0	blocked	3	rating	250964.168313	258974.430863	8010.26254957	novel	6024.34238845	True	257251.999353	263.488651065	color_61	apple	False	7	1279.54988225	
0	blocked	4	rating	266531.1372	274541.722435	8010.58523519	None	None	False	0	0	color_100	stereoright	False	7	2015.88947429	
0	blocked	5	rating	283537.914503	291548.495512	8010.58100918	4	6024.74567001	True	289876.592826	313.932653188	horizontal_68		False	5	2752.77935247	
0	blocked	6	rating	300385.059928	308395.371982	8010.31205419	novel	6011.08360184	True	306689.829396	293.685866612	horizontal_40		False	6	3449.65862941	
0	blocked	7	rating	317817.9706	325828.664806	8010.69420573	4	6024.73631242	True	324485.864921	643.158008489	horizontal_76		False	7	2517.55089769	
0	blocked	8	rating	334691.82407	342702.109561	8010.28549074	None	None	False	0	0	horizontal_50		False	7	3315.74560903	
0	blocked	9	rating	356376.839444	364387.066072	8010.22662854	2	6024.35989619	True	362679.715059	278.515718623	clone_93	leftcrack	False	7	1214.70546863	
0	blocked	10	rating	372397.327113	380407.621659	8010.29454646	4	6010.94444555	True	378459.086845	50.8152867858	clone_41	knobsleftcab	False	7	1516.16597571	
0	blocked	11	rating	390137.156479	398147.410274	8010.25379571	4	6024.35687761	True	396348.843977	187.330620239	color_4	wholepic	False	5	1208.04136172	
0	blocked	12	rating	406144.316236	414154.531695	8010.21545981	novel	6024.37529092	False	0	0	takeaway_46	outletbydoor	False	7	1613.99435285	
0	blocked	13	rating	429788.441395	437798.82016	8010.37876469	novel	6011.10261885	True	436062.95056	263.406545839	takeaway_57	lineinlight	False	7	1593.40375064	
0	blocked	14	rating	446275.477523	454285.699926	8010.22240253	novel	6024.3789132	True	453114.998934	815.142497846	horizontal_77		False	5	2386.15657587	
0	blocked	15	rating	463135.62576	471145.872009	8010.24624927	2	6024.3725742	True	469387.837922	227.839588122	takeaway_89	vent	False	6	2045.72717761	
0	blocked	16	rating	482048.375675	490058.638224	8010.26254957	novel	6011.03077678	True	488677.548024	618.141572351	horizontal_38		False	7	2735.22936035	
0	blocked	17	rating	498961.800543	506972.160291	8010.35974767	4	6011.14397333	True	505109.883658	136.939141312	takeaway_78	floweronwallright	False	7	690.928761038	
0	blocked	18	rating	514329.271238	522339.483075	8010.21183752	novel	6024.30344884	True	520966.005116	612.430429404	clone_48	llightswitch	False	7	1501.81838928	
0	blocked	19	rating	530283.097009	538293.314582	8010.21757281	None	None	False	0	0	clone_16	topbookself	False	4	3497.01161125	
0	blocked	20	rating	548835.961002	556846.188838	8010.22783597	4	6024.38193178	True	555047.939491	187.596556652	horizontal_51		False	6	3839.6388336	
0	blocked	21	rating	567095.541203	575105.757569	8010.21636538	2	6024.3441996	False	0	0	color_72	bedspread	False	6	2867.92348034	
0	blocked	22	rating	584475.484044	592485.861601	8010.37755726	2	6024.42449368	False	0	0	color_71	ventreflection	False	6	2138.34187288	
0	blocked	23	rating	606133.82035	614144.054223	8010.23387311	2	6010.99334646	True	612413.207833	268.394136479	color_17	underfacet	False	7	1431.58914062	
0	blocked	24	rating	627272.433291	635282.56906	8010.13576944	2	6024.27809282	True	633909.434313	612.722929273	clone_79	midcouch	False	6	1020.69836532	
0	blocked	25	rating	642386.512466	650396.759621	8010.24715484	None	None	False	0	0	takeaway_21	bear	False	7	914.255580288	
0	blocked	26	rating	657100.863554	665111.05728	8010.19372607	novel	6024.31069342	True	663322.849522	197.675275037	takeaway_38	reflectionlight	False	6	1855.67621804	
0	blocked	27	rating	674187.636402	682197.84341	8010.2070078	4	6024.2853374	True	680399.48479	187.563050475	color_51	dots	False	5	2576.63134331	
0	blocked	28	rating	691487.606035	699497.842927	8010.23689169	None	None	False	0	0	takeaway_41	leftdrawerhandle	False	7	1481.71226827	
0	blocked	29	rating	707081.536829	715091.790021	8010.25319199	2	6011.11891916	True	713102.966897	10.3111486218	horizontal_6		False	7	8199.35269689	
0	blocked	30	rating	730179.346189	738189.568893	8010.22270439	2	6024.37347977	True	736462.110551	258.390882456	color_96	fruit	False	7	743.912591742	
0	blocked	31	rating	744853.715352	752863.933227	8010.21787467	4	6024.29318569	True	751369.24139	491.232852233	takeaway_33		False	5	1581.34696039	
0	blocked	32	rating	761180.765221	769190.99034	8010.22511925	2	6024.28654482	True	767402.664254	197.612488688	color_98	tv	False	7	3469.97303206	
0	blocked	33	memory	779600.28761	787610.510918	8010.2233081	None	None	False	0	0	takeaway_50	light	False	incorrect	38446.7713629	
0	blocked	34	memory	832539.84307	840550.086301	8010.2432307	None	None	False	0	0	clone_47	chair	False	incorrect	13122.7282963	
0	blocked	35	memory	860728.995702	868739.210558	8010.2148561	2	6011.02413592	True	867307.095884	567.07604574	clone_31	vase	False	correct	10205.0641417	
0	blocked	36	memory	887412.0161	895422.236691	8010.22059139	2	6024.40638223	True	893441.604469	5.18198683776	takeaway_70	sceneryabovecouch	False	correct	37201.0832456	
0	blocked	37	memory	938858.870775	946869.222675	8010.35189938	novel	6024.44411441	False	0	0	clone_10	vase	False	correct	12009.8517216	
0	blocked	38	memory	966741.463924	974751.655537	8010.19161307	novel	6024.31461757	False	0	0	clone_25	wine	False	incorrect	5622.77538606	
0	blocked	39	memory	987413.435434	995423.70885	8010.27341644	None	None	False	0	0	color_30	chairsright	False	incorrect	43869.8357473	
0	blocked	40	memory	1045164.56725	1053174.78724	8010.21998767	None	None	False	0	0	takeaway_29	dresserknob	False	correct	21678.0137901	
0	blocked	41	memory	1085522.30515	1093532.61177	8010.30662076	None	None	False	0	0	takeaway_2	candles	False	incorrect	37015.3805426	
0	blocked	42	memory	1136889.14587	1144899.31786	8010.17199234	novel	6024.38495035	False	0	0	color_50	lightsintv	False	incorrect	24167.8590036	
0	blocked	43	memory	1175940.78191	1183950.95511	8010.17319977	novel	6024.29107269	True	1182648.44293	683.369948642	takeaway_95	drawerknob	False	correct	29899.4917324	
0	blocked	44	memory	1220496.89298	1228507.11719	8010.22421368	4	6011.01538205	True	1227014.29899	506.390624066	color_10	lighttent	False	incorrect	31838.5455059	
0	blocked	45	memory	1270184.4669	1278194.721	8010.25409756	2	6024.34691631	False	0	0	horizontal_43		False	correct	10944.937277	
0	blocked	46	memory	1298226.92858	1306237.19324	8010.26466257	4	6024.41060824	True	1304560.35368	309.014489761	clone_54	jarleft	False	correct	6851.67419197	
0	blocked	47	memory	1319751.98788	1327762.22689	8010.23900469	2	6024.35536832	False	0	0	horizontal_70		False	incorrect	5684.68423598	
0	blocked	48	memory	1343862.65546	1351872.97778	8010.32231735	4	6011.06035881	True	1351240.46025	1366.74442515	horizontal_80		False	incorrect	11896.0840637	
0	blocked	49	memory	1371771.82263	1379782.08699	8010.26436072	4	6011.08843155	False	0	0	color_95	flowers	False	correct	9514.4109765	
0	blocked	50	memory	1411676.48277	1419686.80056	8010.31778949	None	None	False	0	0	takeaway_4	ceilinglights	False	correct	14121.0312537	
0	blocked	51	memory	1442344.68951	1450354.68431	8009.99480201	2	6011.03953065	True	1448538.21032	182.48128031	horizontal_23		False	correct	8225.5596588	
0	blocked	52	memory	1467708.19289	1475718.41771	8010.22481739	novel	6024.45920729	False	0	0	clone_2	statueright	False	incorrect	3395.17426532	
0	blocked	53	memory	1486780.82523	1494791.12461	8010.29937618	2	6011.22547484	True	1492797.17685	5.12614320987	takeaway_27	reflection	False	correct	12794.0363231	
0	blocked	54	memory	1516182.85256	1524193.11723	8010.26466257	4	6011.03047492	True	1522902.53234	708.649302619	horizontal_79		False	incorrect	4239.64825155	
0	blocked	55	memory	1536574.9992	1544585.28831	8010.28911303	2	6024.34933117	True	1542781.65111	182.3025807	takeaway_85	switchleftdoor	False	incorrect	18014.873724	
0	blocked	56	memory	1570961.72387	1578971.99306	8010.26919044	4	6011.0597551	True	1577398.21578	425.432154218	horizontal_32		False	correct	3046.47819895	
0	blocked	57	memory	1590354.25356	1598364.5783	8010.32473221	novel	6024.35114232	False	0	0	color_41	towelleft	False	correct	19525.3351976	
0	blocked	58	memory	1626540.31367	1634550.64685	8010.33318422	2	6011.06941454	True	1632556.56175	5.17866640585	horizontal_16		False	incorrect	3074.98622021	
0	blocked	59	memory	1646479.28292	1654489.60524	8010.32231735	None	None	False	0	0	horizontal_45		False	correct	7314.28914684	
0	blocked	60	memory	1673082.44723	1681092.81422	8010.36699225	None	None	False	0	0	clone_3	candle	False	incorrect	19630.2994849	
0	blocked	61	memory	1708735.43613	1716745.65854	8010.22240253	novel	6011.05100123	False	0	0	clone_99	light	False	incorrect	17846.0949607	
0	blocked	62	memory	1742162.51915	1750172.7666	8010.2474567	2	6024.36683891	True	1749240.04157	1053.15558759	color_69	pillow	False	correct	26586.8664239	
0	blocked	63	memory	1785799.04685	1793809.33838	8010.29152789	2	6024.2853374	False	0	0	horizontal_20		False	incorrect	8474.74570019	
0	blocked	64	memory	1814467.99587	1822478.15548	8010.15961618	novel	6024.33574759	False	0	0	clone_69	hangingspat	False	incorrect	25556.8747732	
0	blocked	65	memory	1855438.90405	1863449.04284	8010.13878802	2	6010.93901212	True	1861647.3979	197.554833915	color_39	painting	False	correct	19734.910297	
0	blocked	66	search	1892344.66959	1900354.84249	8010.17289791	novel	6010.98066845	True	1899408.93625	1053.28599001	clone_24	light	False	N	1667.58884118	
0	blocked	67	search	1908365.1636	1916375.3857	8010.22210067	None	None	False	0	0	takeaway_54	phonebutton	False	Z	2942.80254116	
0	blocked	68	search	1925971.6577	1933981.92568	8010.26798301	2	6011.07001825	False	0	0	horizontal_11		False	Z	2791.84483803	
0	blocked	69	search	1943938.067	1951948.32865	8010.261644	None	None	False	0	0	clone_15	xtracupx2	False	N	1377.18265575	
0	blocked	70	search	1960065.22083	1968075.43931	8010.21847838	novel	6010.93689911	True	1966760.0354	683.877672872	horizontal_54		False	Z	1673.73616814	
0	blocked	71	search	1980404.06065	1988414.35187	8010.29122603	None	None	False	0	0	horizontal_13		False	Z	4054.5963532	
0	blocked	72	search	1999743.3614	2007753.49928	8010.13788245	4	6010.91637281	True	2006513.83232	759.554542925	clone_78	fireplacehanging	False	Z	1043.10162152	
0	blocked	73	search	2015137.33518	2023147.58686	8010.2516827	novel	6010.98036659	False	0	0	takeaway_23	rightknob	False	Z	5824.66006323	
0	blocked	74	search	2035342.95504	2043353.10107	8010.1460326	4	6010.94504927	False	0	0	color_91	cup	False	N	1250.80520475	
0	blocked	75	search	2060786.40174	2068796.63049	8010.22874154	2	6011.01508019	False	0	0	takeaway_43	reflectionlightlefttele	False	N	1862.88457394	
0	blocked	76	search	2076393.66287	2084403.94171	8010.27884987	4	6011.12314516	True	2084384.34996	1979.5639488	horizontal_7		False	Z	2063.24185241	
0	blocked	77	search	2092680.77397	2100691.04739	8010.27341644	None	None	False	0	0	takeaway_65	rugcorner	False	Z	6589.26166272	
0	blocked	78	search	2112899.63934	2120909.85752	8010.21817653	4	6010.96829229	False	0	0	color_20	limes	False	N	2164.69463195	
0	blocked	79	search	2136877.06554	2144887.30303	8010.2374954	None	None	False	0	0	clone_5	spanishbook	False	N	9546.61977009	
0	blocked	80	search	2163853.30392	2171864.57196	8011.26803674	2	6011.01296719	True	2170447.58698	583.270094197	clone_80	statue	False	N	1836.79020485	
0	blocked	81	search	2181006.75195	2189017.00152	8010.2495697	novel	6010.99334646	True	2187200.08229	182.33699245	takeaway_94	topshelf	False	N	8504.27882935	
0	blocked	82	search	2203651.51584	2211661.58067	8010.06483294	2	6010.77087752	False	0	0	horizontal_59		False	N	10739.238631	
0	blocked	83	search	2230054.50368	2238064.6962	8010.19251864	2	6010.95772728	False	0	0	horizontal_12		False	N	1487.78382901	
0	blocked	84	search	2248154.16705	2256164.36531	8010.19825394	4	6010.99153531	True	2255598.1079	1432.94931029	takeaway_30	shotglass	False	Z	2115.79644183	
0	blocked	85	search	2264401.2579	2272411.47487	8010.2169691	2	6011.6918446	True	2270818.01226	405.062511659	clone_84	flushlever	False	Z	3153.79123901	
0	blocked	86	search	2287845.48853	2295855.71214	8010.22360996	2	6024.46524444	True	2294168.77786	298.824084119	clone_52	latle	False	Z	2183.6965584	
0	blocked	87	search	2305785.26585	2313795.51512	8010.24926784	4	6011.02655078	False	0	0	horizontal_61		False	N	10075.4806627	
0	blocked	88	search	2336120.26574	2344130.49539	8010.22964711	2	6024.35204789	True	2342398.4295	253.811704945	horizontal_3		False	Z	2897.27096717	
0	blocked	89	search	2356245.86319	2364256.04122	8010.17802949	2	6010.96225514	False	0	0	clone_58	xtrapillow	False	Z	7547.509344	
0	blocked	90	search	2381476.07568	2389486.31952	8010.24383441	4	6011.14819933	False	0	0	takeaway_11	lightleft	False	N	1711.47136792	
0	blocked	91	search	2410451.58056	2418461.79903	8010.21847838	2	6024.35717947	True	2417877.84553	1401.90779945	takeaway_74	sprinkler	False	N	7847.3621583	
0	blocked	92	search	2436481.60028	2444491.80095	8010.2006688	4	6010.94957713	True	2443435.30229	942.75243282	horizontal_41		False	N	2473.01575515	
0	blocked	93	search	2452968.54826	2460978.71301	8010.16474776	None	None	False	0	0	color_92	windows	False	N	6089.69995973	
0	blocked	94	search	2473467.26477	2481477.53547	8010.27069972	novel	6011.04043622	True	2480809.64809	1331.34288531	takeaway_59	spottopright	False	N	5812.01283981	
0	blocked	95	search	2494712.41437	2502722.72492	8010.31054491	2	6024.4456237	True	2502225.50502	1488.64502832	horizontal_52		False	N	1987.91936301	
0	blocked	96	search	2518409.97102	2526420.17319	8010.20217808	novel	6024.34299217	True	2526206.1623	1771.84829128	color_26	flowerleftchair	False	Z	2975.22686097	
0	blocked	97	search	2537202.69788	2545212.96285	8010.26496443	novel	6011.06820711	True	2544448.7117	1234.94561434	clone_83	pumpkin	False	Z	8832.7383723	
0	blocked	98	search	2561500.04981	2569510.25561	8010.20580037	novel	6010.91124123	False	0	0	clone_85	glassontable	False	N	2324.37148751	
