blocknr	blocktype	trialnr	trialtype	trialstart	trialend	duration	probeNback	probeonset	probefixated	probefixtime	probeRT	imagename	imagechange	filler	response	RT	
0	mixed	0	rating	224898.731934	232908.960315	8010.22838102	4	6011.29272428	True	230975.997641	65.9729821021	takeaway_6	lightsonright	False	6	2159.82596207	
0	mixed	1	rating	241159.03842	249169.255331	8010.2169105	novel	6010.95524959	True	247489.212733	319.219063034	clone_17	dot	False	7	1299.22927179	
0	mixed	2	search	258765.433958	266775.656604	8010.22264576	2	6010.99086856	True	265156.311154	379.886327174	color_62	fruit	False	Z	1257.68668041	
0	mixed	3	search	274652.507017	282662.72423	8010.21721236	novel	6011.02678939	True	280668.714255	5.18044783914	takeaway_72	paintingwords	False	N	1474.20899464	
0	mixed	4	search	289873.218183	297883.407021	8010.18883792	2	6010.98211475	True	296162.801052	278.600753854	horizontal_5		False	N	909.212364855	
0	mixed	5	memory	305120.628488	313130.80495	8010.17646183	4	6010.97094609	True	311557.349719	425.750285027	horizontal_12		False	incorrect	2245.42198071	
0	mixed	6	memory	321127.652368	329137.828227	8010.17585812	novel	6010.9981131	True	327386.928319	248.277837663	takeaway_31	glass.left	False	correct	9453.87931386	
0	mixed	7	memory	344198.59782	351155.858974	6957.2611544	2	6010.94709948	True	350432.482573	222.937653814	clone_88	lightright	False	correct	9467.26057785	
0	mixed	8	memory	366189.98648	374200.165055	8010.17857482	4	6010.96853124	True	372466.082737	265.127725719	color_89	garlic	False	correct	7318.52087076	
0	mixed	9	rating	387141.77982	395151.955074	8010.17525441	4	6010.97456835	True	393426.542958	273.788569992	color_59	dressflowers	False	5	870.538006503	
0	mixed	10	search	401682.742395	409692.968362	8010.22596617	None	None	False	0	0	color_96	fruit	False	Z	1121.15341485	
0	mixed	11	memory	416436.938265	424446.774234	8009.83596858	2	6010.97547392	True	422453.094187	5.1804478392	horizontal_53		False	correct	4926.48847319	
0	mixed	12	rating	434883.032418	442893.21703	8010.18461194	None	None	False	0	0	takeaway_33		False	5	776.125386036	
0	mixed	13	rating	449197.414545	457207.617872	8010.20332699	2	6010.97547392	True	455411.194802	202.804782964	clone_75	plates	False	6	613.437228047	
0	mixed	14	memory	463111.953758	471122.154972	8010.201214	None	None	False	0	0	color_22	orange	False	correct	8522.24148397	
0	mixed	15	rating	485063.3408	493073.56254	8010.22174019	None	None	False	0	0	color_57	shampoo	False	7	738.676260044	
0	mixed	16	rating	500244.042802	508254.265146	8010.2223439	2	6010.99117042	True	506625.329438	370.295465433	clone_10	vase	False	6	1272.14768231	
0	mixed	17	memory	515944.525258	523954.713794	8010.18853606	None	None	False	0	0	color_100	stereoright	False	incorrect	2096.63639154	
0	mixed	18	memory	531591.733802	539601.963994	8010.23019215	novel	6011.00535764	True	537972.640401	369.901241865	takeaway_79	cabnetcrack	False	correct	7256.86895326	
0	mixed	19	memory	552316.987142	560327.143077	8010.15593565	novel	6010.92234731	True	558581.284462	253.374973324	horizontal_35		False	incorrect	1611.31940833	
0	mixed	20	memory	568937.067309	576947.240148	8010.17283957	2	6010.98151104	True	575652.232329	704.183508958	horizontal_75		False	correct	2070.73807647	
0	mixed	21	search	585024.13095	593034.325825	8010.19487503	novel	6011.00565949	False	0	0	takeaway_35	birdhouse	False	N	1284.70186163	
0	mixed	22	rating	601604.294924	609614.48829	8010.19336575	2	6010.9347234	True	608157.506201	542.276553568	color_44	wholepic	False	4	901.555794558	
0	mixed	23	memory	616358.482644	624368.656993	8010.17434884	2	6010.98302031	True	622683.582158	314.11649397	takeaway_22	lightleft	False	correct	7320.20311268	
0	mixed	24	rating	639336.137774	647346.326914	8010.18913977	novel	6010.97004052	True	645625.922584	278.814769559	color_1	oranges	False	6	846.241639729	
0	mixed	25	rating	654223.632828	662233.841588	8010.2087604	4	6011.01048918	True	661348.629469	1113.98615267	clone_77	drawer	False	4	1206.36245446	
0	mixed	26	search	669057.855176	677068.094424	8010.23924782	novel	6011.0062632	True	675423.77796	354.916520292	takeaway_63	ovenlogo	False	Z	1091.78466458	
0	mixed	27	rating	684665.10074	692675.255468	8010.15472822	4	6010.93562897	True	691071.271757	395.235388599	horizontal_3		False	6	692.316956956	
0	mixed	28	rating	699099.363356	707109.562155	8010.19879916	novel	6010.97275722	True	705297.823228	187.487114534	color_4	wholepic	False	6	2452.14968059	
0	mixed	29	search	715226.372168	723236.614736	8010.24256824	4	6010.9688331	True	721779.339546	541.998544452	clone_53	plates	False	N	818.135551933	
0	mixed	30	search	729740.758159	737750.891455	8010.13329647	4	6010.93834567	True	737028.052961	1276.35645659	horizontal_72		False	Z	879.518817836	
0	mixed	31	rating	744361.647903	752371.842476	8010.19457318	2	6010.97939805	True	750590.463291	217.835990318	color_87	picframe	False	6	1156.89101892	
0	mixed	32	rating	759568.982333	767579.175397	8010.1930639	2	6010.9715498	True	765878.988457	299.034574856	takeaway_88	fruitontable	False	7	845.11632161	
0	mixed	33	memory	776562.319773	784572.517667	8010.19789359	novel	6011.05184342	True	782740.615683	167.244066347	takeaway_4	ceilinglights	False	incorrect	1896.76655173	
0	mixed	34	memory	792929.245925	800939.488192	8010.24226638	2	6011.01079104	True	799310.178484	369.921768053	takeaway_28	ovenknob	False	correct	5977.38164916	
0	mixed	35	memory	812521.538764	820531.79069	8010.25192576	2	6011.03433579	True	818836.544827	303.971726986	color_53	wine	False	incorrect	5379.25544872	
0	mixed	36	search	831767.3764	839777.591801	8010.21540122	4	6011.01984671	True	838057.191094	278.794847081	color_45	flowers	False	N	567.858221991	
0	mixed	37	rating	845881.778208	853892.054282	8010.27607422	novel	6024.38933834	True	852433.249588	527.082042271	takeaway_61	fanlever	False	7	962.355573358	
0	mixed	38	memory	861702.320757	869712.478504	8010.15774678	None	None	False	0	0	clone_15	xtracupx2	False	correct	2769.21711606	
0	mixed	39	search	881201.274676	889211.515735	8010.24105896	novel	6010.97819062	True	888012.437361	800.184494215	takeaway_85	switchleftdoor	False	Z	618.754114671	
0	mixed	40	search	895675.645164	903685.828568	8010.18340452	4	6024.29455564	True	902201.233926	501.294206393	horizontal_11		False	Z	500.693211657	
0	mixed	41	memory	909883.451092	917893.592237	8010.14114472	novel	6010.94377907	True	916400.959177	506.56430538	color_69	pillow	False	correct	3040.05655569	
0	mixed	42	search	927649.697948	935659.964665	8010.26671669	2	6010.98694444	True	933994.91675	334.231857189	takeaway_27	reflection	False	N	893.830099302	
0	mixed	43	search	942364.006	950374.253699	8010.24769978	4	6011.01954486	True	948912.044979	537.019434377	color_75	lampchord	False	N	1307.21154441	
0	mixed	44	search	957624.702785	965634.933883	8010.23109772	novel	6010.97064423	True	964147.130816	511.457386576	color_92	windows	False	N	406.214786644	
0	mixed	45	search	972205.609023	980215.849478	8010.24045525	novel	6011.0165263	True	979350.85807	1134.23252127	horizontal_68		False	N	848.902196031	
0	mixed	46	rating	986586.696434	994596.890101	8010.19366761	None	None	False	0	0	clone_59	statue	False	7	990.168257396	
0	mixed	47	rating	1006352.18986	1014362.42126	8010.23139958	None	None	False	0	0	takeaway_96	jarlid	False	5	749.568723642	
0	mixed	48	rating	1020653.32897	1028663.59237	8010.26339628	novel	6010.97064423	True	1026791.11886	126.819246683	horizontal_21		False	6	1970.79274254	
0	mixed	49	rating	1035980.66674	1043990.85347	8010.18672493	None	None	False	0	0	takeaway_42	lights	False	6	739.339738913	
0	mixed	50	rating	1050281.68632	1058291.88422	8010.19789359	None	None	False	0	0	clone_46	xtrawine	False	7	1165.69313167	
0	mixed	51	rating	1066595.2788	1074605.48997	8010.21117524	2	6010.99056671	True	1072611.43653	5.16716618766	horizontal_19		False	5	859.685689715	
0	mixed	52	search	1081376.15599	1089386.39222	8010.23622927	None	None	False	0	0	clone_73	xtrahanging	False	Z	1051.81474149	
0	mixed	53	search	1096303.63455	1104313.8409	8010.20634555	novel	6011.01562073	True	1103003.56643	688.916250433	clone_42		False	Z	2011.99997223	
0	mixed	54	rating	1112097.45382	1120107.65684	8010.20302514	novel	6011.00535764	True	1118529.03112	420.571950178	horizontal_46		False	7	1372.55093136	
0	mixed	55	search	1127398.11328	1135408.37366	8010.26037772	novel	6011.03071352	True	1134442.04657	1032.90257516	horizontal_43		False	N	788.803628064	
0	mixed	56	memory	1142432.25648	1150442.45589	8010.19940287	2	6010.95283474	True	1148970.32456	527.1152464	horizontal_69		False	incorrect	1464.71201002	
0	mixed	57	memory	1159185.77378	1167195.85848	8010.0846977	None	None	False	0	0	horizontal_26		False	incorrect	1116.01341568	
0	mixed	58	memory	1174899.53004	1182909.74182	8010.21177895	4	6010.99388712	True	1181320.76245	410.23852337	clone_63	xtrafruit	False	correct	5387.6947309	
0	mixed	59	memory	1194265.26054	1202275.42734	8010.16680245	2	6010.98090732	True	1200281.40862	5.16716618766	takeaway_54	phonebutton	False	incorrect	5376.83245287	
0	mixed	60	memory	1214244.08295	1222254.29714	8010.2141938	novel	6010.9688331	True	1220733.31862	478.266841059	horizontal_61		False	correct	648.276509497	
0	mixed	61	search	1229251.45336	1237261.7732	8010.3198433	2	6024.34949338	True	1235637.70371	361.900857904	clone_49	vase	False	N	1861.04343674	
0	mixed	62	memory	1244898.74129	1252908.99412	8010.25283133	2	6011.0458063	False	0	0	takeaway_9	overheadlight	False	correct	2590.19735629	
0	mixed	63	memory	1261692.23425	1269702.35426	8010.12001482	4	6010.89035061	True	1267708.2655	5.14090473996	horizontal_15		False	incorrect	2033.76165654	
0	mixed	64	search	1278259.02481	1286269.16414	8010.13933358	2	6024.28368883	True	1284572.93483	289.626335825	clone_67	lightleft	False	N	1028.43963836	
0	mixed	65	rating	1292840.03549	1300850.20168	8010.16619874	2	6010.93894938	True	1299724.25722	873.28278055	takeaway_14	sharkteeth	False	6	1183.14009033	
0	mixed	66	search	1307754.1681	1315764.35482	8010.18672493	2	6010.93804381	True	1314551.68932	786.5831774	horizontal_10		False	Z	1145.99976274	
0	mixed	67	memory	1322748.28221	1330758.49731	8010.21509937	None	None	False	0	0	clone_72	spotceilling	False	incorrect	2160.18879264	
0	mixed	68	search	1339475.07472	1347485.28408	8010.20936411	2	6010.9455902	True	1346469.54834	983.528035303	takeaway_5	thermostat	False	N	522.994010277	
0	mixed	69	memory	1353522.86602	1361533.11433	8010.2483035	4	6011.06603064	True	1359792.42892	258.496861153	color_31	mid.light	False	incorrect	4069.61879547	
0	mixed	70	rating	1373128.5854	1381138.68006	8010.09465893	4	6010.90393412	True	1379418.82602	279.336678096	color_72	bedspread	False	5	1039.21226524	
0	mixed	71	memory	1388789.11122	1396799.23908	8010.12786306	novel	6010.97245536	True	1395068.67338	268.589708954	takeaway_8	ventonfireplace	False	incorrect	1984.60445279	
0	mixed	72	memory	1405755.84612	1413765.94923	8010.10311089	4	6024.21909171	True	1412028.24343	248.178225275	takeaway_98	handletopright	False	correct	1756.33512143	
0	mixed	73	rating	1422962.3441	1430972.50789	8010.16378389	novel	6011.01531888	True	1429535.56721	562.207784799	horizontal_30		False	7	2540.32415078	
0	mixed	74	search	1439542.19958	1447552.76695	8010.56736499	novel	6011.351888	True	1446556.60414	1003.05266688	horizontal_40		False	Z	621.129719174	
0	mixed	75	rating	1454683.27366	1462693.49329	8010.2196272	novel	6010.99388712	True	1461069.17145	374.903896685	color_56	book	False	4	519.86919988	
0	mixed	76	search	1468891.05997	1476901.27205	8010.21208081	novel	6010.99147227	True	1476006.07605	1104.02461211	color_78	ovenclock	False	Z	999.937214011	
0	mixed	77	rating	1483578.63417	1491588.47104	8009.83687415	None	None	False	0	0	horizontal_54		False	4	2186.97848765	
0	mixed	78	rating	1499519.02732	1507529.20258	8010.17525441	2	6011.03192094	True	1505535.24965	5.19040907803	clone_60	xtralight	False	6	1179.17400805	
0	mixed	79	memory	1514353.26024	1519444.62502	5091.36478328	4	None	False	0	0	takeaway_51	lightright	False	incorrect	2686.07427884	
0	mixed	80	search	1529600.58361	1537610.85757	8010.27396123	2	6010.91117865	True	1536016.78046	405.285674743	takeaway_15	cat	False	Z	704.981011766	
0	mixed	81	memory	1543755.10838	1551765.26733	8010.1589542	4	6010.95887186	True	1550115.55127	349.484022928	clone_71	cupsshelf	False	incorrect	1753.07628709	
0	mixed	82	memory	1559655.52044	1567665.62506	8010.10462017	None	None	False	0	0	horizontal_2		False	correct	1725.92195037	
0	mixed	83	memory	1578648.04106	1586658.27186	8010.23079586	None	None	False	0	0	takeaway_20	drawerknob	False	correct	2486.41845473	
0	mixed	84	search	1597040.85979	1605051.06191	8010.20211957	4	6011.03282651	True	1603619.25369	567.361065623	horizontal_65		False	N	1791.10829647	
0	mixed	85	memory	1613741.01685	1621751.25851	8010.24166267	novel	6010.96943681	True	1620071.17064	319.184349626	clone_85	glassontable	False	correct	3349.70135904	
0	mixed	86	search	1631760.61302	1639770.76926	8010.1562375	novel	6010.94106237	True	1638435.27172	663.717636916	horizontal_1		False	N	598.633619905	
0	mixed	87	rating	1646434.82377	1654445.02257	8010.19879916	2	6011.03946733	True	1652709.38871	263.525475566	takeaway_45	midspeaker	False	7	958.653916684	
0	mixed	88	search	1661495.67818	1669505.84347	8010.16529317	novel	6010.92838443	True	1667891.6833	385.076736251	color_5	applesgreen	False	Z	1094.90494714	
0	mixed	89	rating	1676316.54885	1684326.68607	8010.13722059	2	6010.92053618	True	1682545.41887	217.949488068	takeaway_2	candles	False	7	764.362370546	
0	mixed	90	memory	1690937.44433	1697894.71393	6957.26960636	novel	6010.97487021	True	1697267.54589	319.126695184	horizontal_48		False	incorrect	3277.82619208	
0	mixed	91	memory	1710663.00616	1718673.14821	8010.14205028	novel	6023.95526981	True	1718408.53455	1721.57311504	clone_83	pumpkin	False	incorrect	1583.26403229	
0	mixed	92	rating	1727509.73379	1735519.96851	8010.23471999	4	6011.06663435	True	1734052.73601	531.935580367	clone_4	carpetsquare	False	7	775.296490233	
0	mixed	93	search	1742863.73569	1750873.86898	8010.13329647	4	6010.94045866	True	1749264.60219	389.926048368	color_46	lemon	False	Z	644.895423596	
0	mixed	94	memory	1757351.39024	1765361.6645	8010.27426309	2	6011.02256341	True	1763626.01797	263.605165476	takeaway_81	lightabovetv	False	incorrect	1355.14864734	
0	mixed	95	memory	1774104.89728	1782115.00793	8010.11065729	2	6010.93593082	True	1780120.97472	5.14150845143	horizontal_66		False	incorrect	444.033082179	
0	mixed	96	search	1789458.86989	1797469.01345	8010.14355956	None	None	False	0	0	color_42	cups	False	Z	712.747155689	
0	mixed	97	search	1804039.78126	1812049.98761	8010.20634555	2	6011.02437455	True	1811489.82792	1439.02227725	clone_43	butterflyright	False	Z	1080.79138117	
0	mixed	98	search	1818967.30933	1826977.53952	8010.23019215	2	6010.99781124	True	1825267.2214	288.914258185	color_25	hangingcandle	False	N	1851.55580965	
0	mixed	99	search	1834627.83756	1842638.01794	8010.18038596	None	None	False	0	0	horizontal_31		False	Z	1166.65152357	
0	mixed	100	rating	1849675.23223	1857685.43525	8010.20302514	novel	6011.05395641	True	1856030.74491	344.458728928	horizontal_14		False	6	1385.54763117	
0	mixed	101	search	1866641.96471	1874652.15143	8010.18672493	None	None	False	0	0	takeaway_41	leftdrawerhandle	False	Z	624.063756757	
0	mixed	102	memory	1881143.0446	1889153.0979	8010.0533047	None	None	False	0	0	color_93	rocks	False	incorrect	1038.11501971	
0	mixed	103	rating	1897136.71378	1905146.82564	8010.11186471	novel	6024.27282203	True	1903425.51363	264.52703284	color_33	chairmiddle	False	6	754.971941002	
0	mixed	104	search	1911584.32717	1919594.51993	8010.19276204	2	6011.03041166	True	1917600.53139	5.17380701355	takeaway_82	reflectionontable	False	Z	688.354496941	
0	mixed	105	rating	1925618.83441	1933629.02113	8010.18672493	novel	6011.03101537	True	1932085.73216	455.866731908	clone_89	piconshelf	False	5	861.604586517	
0	mixed	106	search	1940186.49341	1948196.659	8010.16559503	4	6010.9715498	True	1946937.12708	739.66212082	takeaway_7	drawerhandles	False	Z	957.539163515	
0	mixed	107	memory	1956166.89663	1964177.24726	8010.35063258	novel	6011.04973043	True	1962264.17416	86.2278026624	takeaway_94	topshelf	False	incorrect	1436.30949991	
0	mixed	108	rating	1973453.47573	1981463.61537	8010.13963544	4	6010.92355474	False	0	0	clone_55	darklightright	False	2	753.871073197	
0	mixed	109	memory	1988127.67108	1996137.8886	8010.21751421	4	6010.97668134	True	1994346.45128	207.803513661	takeaway_1	.thermostat	False	correct	546.946563388	
0	mixed	110	rating	2004267.98932	2012278.28048	8010.29116701	novel	6011.05576754	True	2011023.63259	744.587500577	clone_36	light	False	6	997.082262626	
0	mixed	111	search	2019408.76396	2027419.01619	8010.25222762	None	None	False	0	0	color_95	flowers	False	Z	621.426443346	
0	mixed	112	rating	2033989.72272	2041999.96378	8010.24105896	None	None	False	0	0	horizontal_71		False	4	1240.11958316	
0	mixed	113	rating	2048743.97111	2056754.19134	8010.22023091	4	6011.03373207	True	2055332.44668	577.441839195	clone_98	wine	False	6	509.650780101	
0	mixed	114	rating	2063871.36539	2071881.56631	8010.20091215	2	6010.99237784	True	2070110.56341	228.205639812	horizontal_56		False	6	560.485999781	
0	mixed	115	search	2078345.706	2086355.87038	8010.16438761	4	6010.96490897	True	2084615.13003	258.459129189	horizontal_60		False	N	2331.123347	
0	mixed	116	search	2094432.73855	2102443.03122	8010.29267629	4	6010.99569825	True	2100742.8633	299.129055696	clone_57	xtrabushes	False	Z	899.703909726	
0	mixed	117	rating	2110679.45851	2118689.9332	8010.47469528	4	6011.24231438	True	2117040.24431	349.543488504	takeaway_10	leftoflight	False	7	583.013492045	
0	mixed	118	search	2124780.89803	2132791.05457	8010.15653936	4	6010.95645701	True	2131045.21467	253.360182393	horizontal_25		False	Z	830.876881806	
0	mixed	119	memory	2139588.41822	2147598.61762	8010.19940287	4	6010.91963061	True	2146394.51154	795.173689289	horizontal_23		False	incorrect	5383.75792862	
