blocknr	blocktype	trialnr	trialtype	trialstart	trialend	duration	probeNback	probeonset	probefixated	probefixtime	probeRT	imagename	imagechange	filler	response	RT	
0	mixed	0	memory	151717.176776	159727.442042	8010.26526629	None	None	False	0	0	color_54	booktable	False	incorrect	19966.0108512	
0	mixed	1	search	191195.256793	199205.506061	8010.24926784	novel	6011.01326905	True	197459.79138	253.521318079	takeaway_75	soap	False	N	3666.17795946	
0	mixed	2	memory	243921.511026	251931.750936	8010.23991026	novel	6011.03017307	True	250251.650104	319.108904734	color_11	lemon2orange	False	incorrect	20482.6069738	
0	mixed	3	rating	282959.720746	290969.997784	8010.27703873	2	6011.03409721	True	289168.488376	197.733533525	takeaway_85	switchleftdoor	False	4	4774.68876988	
0	mixed	4	memory	317066.573151	325076.806119	8010.23296754	4	6010.96708486	True	323366.426871	288.88663502	clone_84	flushlever	False	incorrect	20536.2062918	
0	mixed	5	search	356917.817498	364928.058314	8010.24081584	2	6011.04828451	True	363177.193643	248.327860658	clone_21	book	False	N	1764.66619698	
0	mixed	6	memory	387905.868471	395916.091477	8010.22300625	None	None	False	0	0	clone_9	bookshelf	False	incorrect	12719.7914648	
0	mixed	7	search	414308.948685	422319.206405	8010.25771985	4	6011.09567613	True	421125.598357	805.553995959	horizontal_79		False	N	996.473097558	
0	mixed	8	rating	432262.038226	440272.336998	8010.29877247	2	6010.9972706	True	438572.062731	299.027234183	color_26	flowerleftchair	False	3	5781.7585732	
0	mixed	9	search	452720.777029	460731.035957	8010.25892728	4	6011.05160495	True	460499.595813	1767.76717856	clone_88	lightright	False	N	2095.98100954	
0	mixed	10	memory	468647.987124	476658.220997	8010.23387311	None	None	False	0	0	clone_55	darklightright	False	correct	15296.3799443	
0	mixed	11	rating	501221.937068	509232.294099	8010.35703095	2	6011.17355536	True	507420.68937	187.578747062	horizontal_48		False	6	2132.55315257	
0	mixed	12	search	519375.043694	527385.28451	8010.24081584	None	None	False	0	0	color_36	lights	False	N	5720.50837624	
0	mixed	13	rating	538994.133099	547004.400478	8010.26737929	novel	6010.98368702	True	545734.62957	729.512783965	takeaway_13	lightreflectionleft	False	5	1967.86244477	
0	mixed	14	memory	556120.832933	564131.054732	8010.22179882	4	6010.9951576	True	562699.077403	567.249311916	takeaway_51	lightright	False	incorrect	17509.8870389	
0	mixed	15	rating	587042.224122	595052.473692	8010.2495697	novel	6011.03802136	True	593509.332527	456.070383498	color_61	apple	False	4	3468.22256071	
0	mixed	16	rating	604288.850714	612299.150694	8010.2999799	2	6011.11076901	True	610664.879369	364.917885718	color_4	wholepic	False	4	1847.9374986	
0	mixed	17	search	622588.483776	630598.763532	8010.27975545	novel	6011.06096253	True	629870.896474	1271.35173577	takeaway_81	lightabovetv	False	N	1913.30503118	
0	mixed	18	memory	638182.46498	646192.698249	8010.2332694	2	6010.99847803	True	644198.663858	5.20040014223	horizontal_8		False	incorrect	9886.7168233	
0	mixed	19	memory	664798.809897	672809.082408	8010.27251087	novel	6011.11318387	True	671286.439175	476.516094134	takeaway_83	soap	False	correct	20133.6265577	
0	mixed	20	memory	704943.294871	712953.59968	8010.30480962	novel	6011.07514983	True	711542.325244	587.955223673	clone_20	chair	False	incorrect	22132.649747	
0	mixed	21	memory	740476.353997	748486.510896	8010.15689947	novel	6010.93388054	True	746983.722941	496.43506352	takeaway_87	bottleshadow	False	incorrect	17471.1439371	
0	mixed	22	search	792402.876158	800413.113654	8010.2374954	novel	6011.02624892	True	799026.876784	612.974376529	clone_26	statue	False	N	1831.94871321	
0	mixed	23	memory	817139.990618	825150.238075	8010.2474567	2	6011.00904305	True	823156.166253	5.16659210774	color_68	vase	False	incorrect	11862.2274303	
0	mixed	24	rating	842436.902435	850447.117593	8010.21515795	None	None	False	0	0	takeaway_93	statueheadleft	False	2	1269.11165164	
0	mixed	25	search	859536.906299	866241.026835	6704.1205353	2	6011.08058326	False	0	0	clone_62	robotbottomshelf	False	N	858.937184068	
0	mixed	26	rating	873758.112872	881768.381458	8010.26858672	novel	6010.98700745	True	880220.169088	451.069209272	color_38	bottleright	False	3	707.395990488	
0	mixed	27	rating	888992.237132	897002.432065	8010.1949335	4	6010.99666689	True	895307.262509	304.028710266	takeaway_74	sprinkler	False	2	2059.57096397	
0	mixed	28	search	905172.62322	913182.884864	8010.261644	novel	6011.05432166	True	911903.209409	719.531867393	horizontal_37		False	N	644.508820576	
0	mixed	29	search	929110.052095	937120.285968	8010.23387311	novel	6011.02292849	True	935652.727795	531.652772168	horizontal_1		False	N	2930.34458235	
0	mixed	30	memory	961897.407407	969907.626791	8010.21938396	novel	6011.00813747	True	968268.126389	359.710844712	color_88	bowltopshelf	False	incorrect	8254.32667375	
0	mixed	31	rating	984355.422356	992365.632986	8010.21063009	novel	6010.99757246	True	990675.529503	309.109574858	color_35	v	False	1	2604.11878453	
0	mixed	32	rating	1000655.71045	1008665.98387	8010.27341644	novel	6011.09416685	True	1006742.97502	76.1704069823	takeaway_78	floweronwallright	False	4	2863.37479044	
0	mixed	33	memory	1026099.23292	1034109.52596	8010.29303717	2	6011.02534335	True	1032318.16681	207.908544437	clone_71	cupsshelf	False	correct	4227.435401	
0	mixed	34	rating	1049916.73111	1057926.97495	8010.24383441	4	6010.97523501	True	1056419.18763	491.481280914	takeaway_29	dresserknob	False	1	1276.26476762	
0	mixed	35	search	1071455.05705	1079465.29092	8010.23387311	2	6011.00753376	True	1078271.29257	805.227989913	color_55	flowerleft	False	Z	1070.90450377	
0	mixed	36	memory	1089741.31692	1097751.57494	8010.25802171	novel	6011.08360184	True	1096461.25207	708.85154711	color_20	limes	False	incorrect	15482.689079	
0	mixed	37	rating	1126073.96806	1134084.20012	8010.23206197	2	6011.03892693	True	1132505.67764	420.670654807	clone_25	wine	False	2	2469.64823344	
0	mixed	38	rating	1163459.5502	1171469.76837	8010.21817653	None	None	False	0	0	takeaway_40	handleshadow	False	6	803.523400895	
0	mixed	39	memory	1180359.33171	1188369.88767	8010.55595501	novel	6011.38364814	True	1186700.085	329.369643162	takeaway_3	wallpaint	False	correct	1772.39103097	
0	mixed	40	memory	1196046.84103	1204057.16154	8010.3205062	2	6011.08118698	False	0	0	horizontal_10		False	correct	3037.63196453	
0	mixed	41	rating	1214253.3236	1222263.47114	8010.14754188	4	6010.91244866	True	1220542.92866	278.692607088	clone_28	wine	False	2	2894.23911095	
0	mixed	42	rating	1231220.01997	1231366.65658	146.636613739	2	None	False	0	0	color_40	whole+pic.in.mirror	False	6	4230.91460996	
0	mixed	43	search	1248226.74988	1256237.00157	8010.2516827	2	6011.04043622	True	1255109.22682	871.436497343	horizontal_21		False	Z	1448.14028644	
0	mixed	44	search	1267539.30305	1275549.55624	8010.25319199	2	6011.05854767	False	0	0	color_96	fruit	False	N	1487.17347325	
0	mixed	45	memory	1284706.05786	1292716.26547	8010.20761152	4	6010.98700745	True	1290995.78818	278.74331914	clone_24	light	False	incorrect	10366.1343712	
0	mixed	46	memory	1314907.72127	1322917.90473	8010.18346292	4	6010.94746413	True	1321886.07115	967.402414015	horizontal_33		False	incorrect	2313.46688714	
0	mixed	47	memory	1333287.26023	1341297.52127	8010.26104029	None	None	False	0	0	horizontal_58		False	correct	3693.58540845	
0	mixed	48	search	1351840.06234	1359850.39311	8010.33076936	4	6011.04496408	True	1358590.79299	739.685681875	horizontal_62		False	N	1648.89239446	
0	mixed	49	memory	1367980.5305	1375990.7698	8010.23930655	4	6011.0455678	True	1374645.14242	653.56635521	horizontal_31		False	correct	7924.23106343	
0	mixed	50	memory	1406112.51676	1414122.70053	8010.18376478	4	6010.95138827	True	1412488.21881	364.750656691	color_47	potonshelf	False	correct	23594.7316216	
0	mixed	51	search	1453280.85904	1461291.21275	8010.35371052	4	6011.08058326	True	1459535.12443	243.184813431	takeaway_1	.thermostat	False	N	1675.6937137	
0	mixed	52	memory	1477951.37952	1485961.6638	8010.28428331	novel	6011.07756469	True	1484150.11522	187.658135572	horizontal_15		False	correct	2754.8817896	
0	mixed	53	search	1509685.84578	1517696.07	8010.22421368	4	6011.0051189	True	1516385.70198	688.851076212	takeaway_63	ovenlogo	False	Z	1752.49621018	
0	mixed	54	search	1528998.38718	1537008.61018	8010.22300625	2	6011.0030059	True	1535931.54628	922.156095317	clone_79	midcouch	False	N	1407.54891147	
0	mixed	55	search	1545032.18887	1553042.56432	8010.37544426	2	6011.09627985	False	0	0	horizontal_57		False	Z	6549.36606917	
0	mixed	56	rating	1569835.94289	1577846.32347	8010.38057584	2	6010.99787432	True	1576054.8312	207.89043299	horizontal_26		False	2	859.969234689	
0	mixed	57	rating	1590827.8519	1598838.08095	8010.2290434	novel	6011.0093449	True	1597821.24455	982.383297382	takeaway_46	outletbydoor	False	5	5243.62763831	
0	mixed	58	rating	1616018.1528	1616497.97816	479.825357354	None	None	False	0	0	clone_85	glassontable	False	4	6519.31133034	
0	mixed	59	search	1632438.44583	1640448.63986	8010.19402793	2	6011.00149661	False	0	0	color_57	shampoo	False	N	3963.06774104	
0	mixed	60	rating	1667984.67711	1675688.49066	7703.81354628	novel	6011.1143913	True	1674249.28264	253.491132334	takeaway_57	lineinlight	False	3	1471.95442435	
0	mixed	61	memory	1684258.43586	1692268.64951	8010.21364867	novel	6011.03862508	True	1690816.37951	546.905025383	color_60	paper	False	incorrect	5273.55227658	
0	mixed	62	memory	1703864.14996	1711874.42428	8010.27432201	None	None	False	0	0	horizontal_40		False	incorrect	2574.12683205	
0	mixed	63	memory	1729201.08294	1737211.29297	8010.21002638	2	6011.01417462	True	1735440.07707	227.979951835	clone_19	plant	False	correct	5065.45476938	
0	mixed	64	memory	1750672.69627	1758683.05783	8010.36155882	2	6011.10835415	True	1757048.60086	364.796237166	clone_63	xtrafruit	False	correct	4388.7428905	
0	mixed	65	memory	1790324.1789	1798334.39617	8010.21727096	novel	6010.94504927	False	0	0	takeaway_23	rightknob	False	correct	11952.5800058	
0	mixed	66	memory	1822991.57938	1831001.76798	8010.1885945	4	6010.87803691	True	1829980.0433	977.585876935	takeaway_100	cabnet	False	correct	12767.2208166	
0	mixed	67	rating	1867840.93109	1875851.13296	8010.20187622	2	6010.98247959	True	1874895.42451	1043.51094022	clone_47	chair	False	5	727.134449119	
0	mixed	68	rating	1882581.87793	1890592.15285	8010.27492573	None	None	False	0	0	clone_8	teapotsright	False	3	3545.85154288	
0	mixed	69	memory	1908438.57171	1916448.80498	8010.2332694	4	6011.04043622	True	1915320.84338	871.231234277	clone_40	xtradoorknob	False	correct	13910.7564487	
0	mixed	70	memory	1946144.08984	1954154.22561	8010.13576944	2	6010.91335423	True	1952408.51486	253.51165864	color_66	painting	False	incorrect	4383.45434798	
0	mixed	71	rating	1974346.40829	1982356.69982	8010.29152789	novel	6011.04526594	False	0	0	takeaway_48	handleleft	False	3	1566.29876281	
0	mixed	72	search	1990566.86927	1998577.08322	8010.21395052	novel	6010.99877989	True	1997347.96527	770.09721621	horizontal_70		False	Z	2678.96101873	
0	mixed	73	search	2012651.63115	2012758.29368	106.662537257	None	None	False	0	0	takeaway_25	plugin	False	N	2161.49162255	
0	mixed	74	memory	2024420.47264	2032430.72462	8010.25198456	4	6011.00693004	False	0	0	color_75	lampchord	False	correct	10993.5339116	
0	mixed	75	rating	2069643.0104	2074347.84543	4704.83503189	4	None	False	0	0	color_43	purpleright	False	5	1221.58812034	
0	mixed	76	rating	2083264.4232	2091274.6456	8010.22240253	2	6011.00874119	True	2089776.81898	501.387034981	color_81	paintings	False	5	667.808895256	
0	mixed	77	rating	2097618.8289	2104189.76208	6570.93318023	4	6011.15212348	True	2103847.85268	217.87165142	clone_60	xtralight	False	3	963.221990194	
0	mixed	78	search	2113586.07254	2121596.30309	8010.23055268	2	6010.98429073	True	2119602.24214	5.18530726992	clone_59	statue	False	Z	3761.58996771	
0	mixed	79	search	2148532.55774	2156542.79161	8010.23387311	4	6011.00693004	True	2155267.82936	724.264690346	horizontal_51		False	N	1894.49870835	
0	mixed	80	search	2168724.75883	2176735.00599	8010.24715484	4	6011.03047492	True	2174740.96827	5.17896826332	takeaway_34	flowersleft	False	Z	2387.35645924	
0	mixed	81	search	2220478.04229	2228488.33412	8010.29182975	2	6011.100204	True	2227091.83832	602.695828511	clone_89	piconshelf	False	N	1531.64220716	
0	mixed	82	memory	2262768.44153	2270778.72551	8010.28398145	2	6011.04134179	True	2269083.50856	304.025691691	takeaway_38	reflectionlight	False	incorrect	12198.7109479	
0	mixed	83	memory	2289984.56724	2297994.8488	8010.28156659	4	6011.04858637	True	2296016.02259	20.4067710247	color_56	book	False	incorrect	2582.20544297	
0	mixed	84	rating	2404447.07564	2412017.46336	7570.38772382	2	6010.97493315	True	2411921.77545	1463.72488471	color_63	clock	False	3	930.04664905	
0	mixed	85	search	2438274.10317	2446284.2821	8010.17893506	novel	6010.97825359	True	2445100.26376	815.182343029	clone_53	plates	False	Z	763.944757672	
0	mixed	86	memory	2456013.80092	2464024.06981	8010.26888858	4	6011.09929842	True	2462425.14358	400.243357476	takeaway_71	stickerdesk	False	correct	8291.35039552	
0	mixed	87	search	2492239.80914	2500250.09222	8010.28307588	novel	6011.06790525	True	2499071.64043	820.763385416	color_95	flowers	False	N	1973.23611109	
0	mixed	88	memory	2522548.13872	2530558.42179	8010.28307588	2	6010.98700745	False	0	0	takeaway_70	sceneryabovecouch	False	correct	10742.5291791	
0	mixed	89	rating	2591188.25793	2599198.53738	8010.27945359	novel	6011.08390369	True	2597888.35138	689.009551373	color_15	flowers	False	7	871.033517648	
0	mixed	90	search	2605849.26809	2613859.61908	8010.35099381	None	None	False	0	0	clone_2	statueright	False	Z	2863.14779363	
