blocknr	blocktype	trialnr	trialtype	trialstart	trialend	duration	probeNback	probeonset	probefixated	probefixtime	probeRT	imagename	imagechange	filler	response	RT	
0	mixed	0	memory	140038.786502	148049.163518	8010.37701619	None	None	False	0	0	takeaway_42	lights	False	incorrect	3153.2850439	
0	mixed	1	search	158445.074592	166455.397878	8010.32328524	None	None	False	0	0	horizontal_59		False	N	2010.80505264	
0	mixed	2	memory	175478.649494	183488.915124	8010.26563012	None	None	False	0	0	clone_36	light	False	correct	13062.2144034	
0	mixed	3	memory	205014.044304	213024.380872	8010.33656705	None	None	False	0	0	color_20	limes	False	correct	13961.0897361	
0	mixed	4	search	235935.614927	243945.969001	8010.35407489	None	None	False	0	0	color_32	bookabovetv	False	Z	2087.39610759	
0	mixed	5	rating	252062.860684	260073.098845	8010.23816093	None	None	False	0	0	clone_49	vase	False	4	3234.66569991	
0	mixed	6	memory	269656.079657	277666.429204	8010.349547	None	None	False	0	0	takeaway_25	plugin	False	incorrect	8246.39625308	
0	mixed	7	rating	293966.872756	301977.129029	8010.25627248	None	None	False	0	0	horizontal_70		False	3	1210.13631361	
0	mixed	8	memory	310227.335047	318237.641127	8010.30607926	None	None	False	0	0	takeaway_92	bottlelidwindow	False	incorrect	11618.5344008	
0	mixed	9	search	335257.814382	343268.196228	8010.38184594	None	None	False	0	0	takeaway_15	cat	False	N	1108.03603717	
0	mixed	10	search	350492.011596	358502.313751	8010.30215509	None	None	False	0	0	clone_80	statue	False	N	785.624374774	
0	mixed	11	search	364553.38502	372563.662422	8010.27740263	None	None	False	0	0	takeaway_2	candles	False	Z	1412.12453989	
0	mixed	12	memory	380547.067709	388557.586297	8010.51858819	None	None	False	0	0	horizontal_79		False	correct	7297.93540332	
0	mixed	13	search	403231.74491	411241.985485	8010.2405758	None	None	False	0	0	color_3	lights	False	N	1485.08452965	
0	mixed	14	search	418412.854436	426423.322311	8010.46787583	None	None	False	0	0	takeaway_89	vent	False	Z	1015.97831684	
0	mixed	15	search	432807.427972	440817.708393	8010.28042123	None	None	False	0	0	horizontal_40		False	N	1261.37511388	
0	mixed	16	search	447575.218501	455585.43372	8010.21521962	None	None	False	0	0	clone_31	vase	False	Z	1173.43867819	
0	mixed	17	search	462049.647398	470059.940498	8010.29309932	None	None	False	0	0	takeaway_50	light	False	N	1760.10398448	
0	mixed	18	rating	476977.249772	484987.691386	8010.44161408	None	None	False	0	0	clone_17	dot	False	6	1149.5866641	
0	mixed	19	search	491745.014341	499755.401923	8010.38758127	None	None	False	0	0	color_86	buildingoutside	False	Z	1123.03693369	
0	mixed	20	memory	506472.739693	514483.047583	8010.30789042	None	None	False	0	0	clone_58	xtrapillow	False	correct	21530.8445841	
0	mixed	21	rating	541352.871678	549363.170211	8010.29853278	None	None	False	0	0	clone_74	chairhole	False	3	3885.32758674	
0	mixed	22	memory	559079.44121	567089.739441	8010.29823092	None	None	False	0	0	clone_85	glassontable	False	incorrect	4131.77575961	
0	mixed	23	memory	578445.425957	586455.785465	8010.35950836	None	None	False	0	0	color_78	ovenclock	False	incorrect	10565.4910858	
0	mixed	24	memory	602996.075528	611006.393681	8010.31815364	None	None	False	0	0	color_18	magcolor	False	correct	5814.59471469	
0	mixed	25	memory	622068.778937	630079.14901	8010.37007343	None	None	False	0	0	color_13	wheelsleft	False	incorrect	3789.65479977	
0	mixed	26	rating	639075.702079	647085.952617	8010.25053716	None	None	False	0	0	takeaway_38	reflectionlight	False	4	830.620121577	
0	mixed	27	search	654043.274847	662053.630733	8010.35588604	None	None	False	0	0	horizontal_32		False	Z	1062.85615621	
0	mixed	28	search	669277.509794	677287.807421	8010.29762721	None	None	False	0	0	clone_42		False	N	2364.39998527	
0	mixed	29	search	684898.338325	692908.581618	8010.24329254	None	None	False	0	0	takeaway_83	soap	False	Z	1303.57202151	
0	mixed	30	memory	699599.33766	707609.603592	8010.26593198	None	None	False	0	0	takeaway_45	midspeaker	False	incorrect	3322.16957126	
0	mixed	31	search	716193.058625	724203.438358	8010.37973293	None	None	False	0	0	color_82	vaseleft	False	N	1960.41115648	
0	mixed	32	search	732160.299952	740170.660064	8010.36011207	None	None	False	0	0	horizontal_20		False	N	1734.32369336	
0	mixed	33	search	747287.909751	755298.252959	8010.34320796	None	None	False	0	0	horizontal_43		False	N	785.236787469	
0	mixed	34	search	761629.16679	769639.423666	8010.2568762	None	None	False	0	0	clone_52	latle	False	Z	811.845380436	
0	mixed	35	memory	775810.427547	783820.699215	8010.27166731	None	None	False	0	0	clone_64	xtraglass	False	incorrect	6486.27506262	
0	mixed	36	rating	797295.594787	805305.840494	8010.24570741	None	None	False	0	0	clone_44	pillow	False	6	1209.01007667	
0	mixed	37	search	812116.601294	820126.911901	8010.31060715	None	None	False	0	0	takeaway_99	blockoncushion	False	N	891.796732796	
0	mixed	38	memory	827377.494942	835387.744876	8010.24993344	None	None	False	0	0	horizontal_31		False	correct	2473.24198669	
0	mixed	39	rating	843091.466378	851101.796304	8010.32992615	None	None	False	0	0	clone_88	lightright	False	6	1396.56037397	
0	mixed	40	rating	857672.593774	865682.966564	8010.37279016	None	None	False	0	0	clone_4	carpetsquare	False	5	1177.88053738	
0	mixed	41	search	872480.330548	880490.631797	8010.30124952	None	None	False	0	0	horizontal_30		False	N	468.676365204	
0	mixed	42	memory	887208.049259	895218.422652	8010.37339388	None	None	False	0	0	takeaway_49	chairlegs	False	correct	3642.22341088	
0	mixed	43	rating	904294.908962	912305.190591	8010.28162866	None	None	False	0	0	takeaway_97	knife	False	6	1480.38095848	
0	mixed	44	rating	919715.732181	927726.043694	8010.31151273	None	None	False	0	0	clone_22	xtra.orb.by.stair.rail	False	2	1075.52820845	
0	mixed	45	memory	934483.435472	942493.706838	8010.27136545	None	None	False	0	0	horizontal_33		False	correct	2489.03435823	
0	mixed	46	rating	951077.14708	959087.411201	8010.26412083	None	None	False	0	0	clone_14	corner	False	6	641.634785297	
0	mixed	47	search	964991.877873	973002.153464	8010.27559148	None	None	False	0	0	takeaway_86	cuponshelf	False	Z	1334.80389109	
0	mixed	48	search	979759.601993	987769.905355	8010.30336253	None	None	False	0	0	color_27	pillowleft	False	N	1524.13334694	
0	mixed	49	rating	995180.401968	1003190.67846	8010.27649706	None	None	False	0	0	takeaway_6	lightsonright	False	3	841.753898965	
0	mixed	50	memory	1010347.94865	1018358.22998	8010.2813268	None	None	False	0	0	takeaway_17	clock	False	incorrect	5202.28616138	
0	mixed	51	search	1029180.80435	1037191.04704	8010.24268882	None	None	False	0	0	clone_63	xtrafruit	False	Z	2342.42825258	
0	mixed	52	memory	1044708.18721	1052718.52649	8010.33928378	None	None	False	0	0	color_97	vase	False	correct	4193.6300449	
0	mixed	53	rating	1062754.66388	1070764.91441	8010.25053716	None	None	False	0	0	horizontal_4		False	5	1029.70959327	
0	mixed	54	rating	1077628.99624	1085639.30021	8010.30396625	None	None	False	0	0	takeaway_80	tilesbackleft	False	5	411.012792192	
0	mixed	55	rating	1092383.43644	1100393.6906	8010.25415947	None	None	False	0	0	horizontal_47		False	6	1429.74557489	
0	mixed	56	rating	1107431.02878	1115441.31282	8010.28404354	None	None	False	0	0	clone_46	xtrawine	False	5	952.614433341	
0	mixed	57	memory	1122025.49171	1130035.7015	8010.20978616	None	None	False	0	0	takeaway_81	lightabovetv	False	correct	2523.41794046	
0	mixed	58	memory	1138259.36262	1146269.59565	8010.23302932	None	None	False	0	0	clone_40	xtradoorknob	False	incorrect	4004.11615303	
0	mixed	59	rating	1156345.75052	1164356.14715	8010.39663705	None	None	False	0	0	takeaway_1	.thermostat	False	4	1637.19654842	
0	mixed	60	memory	1171633.27419	1179643.63189	8010.3576972	None	None	False	0	0	color_11	lemon2orange	False	correct	5269.73782315	
0	mixed	61	memory	1190399.22609	1198409.73321	8010.50711754	None	None	False	0	0	clone_29	topshelf	False	incorrect	2585.99276383	
0	mixed	62	rating	1206979.87504	1214990.14218	8010.26713942	None	None	False	0	0	takeaway_26	belowlightleft	False	4	1042.51959519	
