blocknr	blocktype	trialnr	trialtype	trialstart	trialend	duration	probeNback	probeonset	probefixated	probefixtime	probeRT	imagename	imagechange	filler	response	RT	
0	mixed	0	search	170100.099251	178110.355222	8010.25597063	2	6011.09815799	True	176349.36679	238.169380482	takeaway_52	lightbase	False	Z	7564.59607305	
0	mixed	1	memory	218361.710117	226372.008348	8010.29823092	2	6011.10962865	True	224529.881351	157.061605251	takeaway_89	vent	False	correct	19294.1739349	
0	mixed	2	rating	253135.234161	261145.489528	8010.25536691	2	6011.00427976	True	259394.458528	248.220086803	horizontal_40		False	4	5291.22748658	
0	mixed	3	memory	274700.335849	282710.604799	8010.26895057	4	6011.01061881	True	281435.582024	724.235556487	color_56	book	False	incorrect	10747.0241204	
0	mixed	4	rating	300210.580047	308220.890352	8010.31030529	2	6011.09121523	True	306616.815312	395.144050263	horizontal_69		False	7	2447.15138424	
0	mixed	5	rating	317604.054212	325614.301428	8010.24721671	2	6011.04020101	True	324435.31518	820.220767797	horizontal_64		False	5	2085.64441823	
0	mixed	6	memory	334291.014978	342301.314718	8010.29974022	2	6011.0395973	True	340484.410478	182.355902949	takeaway_18	hanginglightright	False	correct	25083.506349	
0	mixed	7	search	374449.09898	382459.432831	8010.33385032	4	6010.98737564	True	380687.999464	227.913107997	horizontal_58		False	N	3701.21033494	
0	mixed	8	rating	393121.978615	401132.282279	8010.30366439	novel	6010.94662464	True	399659.736984	526.811744258	color_59	dressflowers	False	7	3750.79645569	
0	mixed	9	rating	411315.074671	419325.321888	8010.24721671	2	6011.00910951	True	417776.81914	450.735359373	clone_79	midcouch	False	7	2261.51819517	
0	mixed	10	memory	427828.825266	435839.058598	8010.23333118	None	None	False	0	0	color_77	booksleft	False	correct	25872.6262541	
0	mixed	11	memory	468386.680822	476397.07927	8010.3984482	None	None	False	0	0	clone_41	knobsleftcab	False	correct	16970.1859634	
0	mixed	12	search	500001.238529	508011.612224	8010.37369574	2	6011.18328231	True	506215.092843	202.671031954	horizontal_30		False	N	2075.49530579	
0	mixed	13	memory	518247.754318	526258.038965	8010.28464726	novel	6011.0528791	True	524512.180625	253.373428294	clone_38	windowtower	False	incorrect	11364.7172394	
0	mixed	14	search	543864.677696	551875.025432	8010.34773584	4	6011.05469026	True	550154.479803	278.747416839	clone_25	wine	False	Z	979.702076973	
0	mixed	15	memory	559085.561407	567095.869599	8010.30819228	2	6010.99129981	True	565334.782459	238.229752337	horizontal_4		False	incorrect	12726.4828988	
0	mixed	16	rating	586435.172401	594445.123192	8009.9507909	4	6010.69819446	True	592759.88574	314.015144884	color_2	bookbinding	False	6	1352.73946345	
0	mixed	17	memory	602042.550385	610052.913214	8010.36282881	4	6011.09453568	False	0	0	color_50	lightsintv	False	incorrect	13856.9899439	
0	mixed	18	search	630018.615058	638028.879782	8010.26472454	4	6011.02148574	False	0	0	takeaway_44	lightorangeright	False	N	1680.74910604	
0	mixed	19	rating	645945.875123	653956.185127	8010.31000344	novel	6011.05318096	True	652195.165301	238.236996959	takeaway_14	sharkteeth	False	1	913.099847199	
0	mixed	20	rating	660993.485575	669003.843876	8010.35830092	novel	6011.04744564	True	667222.304563	217.771542036	clone_33	pillow	False	7	1356.23257895	
0	mixed	21	rating	676694.255195	684704.504525	8010.24932972	novel	6010.94662464	True	682963.549285	258.347465378	horizontal_72		False	4	1751.32742615	
0	mixed	22	rating	693807.70689	701817.984594	8010.27770449	None	None	False	0	0	color_76	exit	False	6	1130.95077822	
0	mixed	23	memory	709095.218187	717105.524568	8010.30638112	4	6011.06434976	True	715612.797565	506.515028668	clone_22	xtra.orb.by.stair.rail	False	incorrect	13547.0692181	
0	mixed	24	rating	736618.13323	744628.349959	8010.21672892	4	6010.9876775	True	742877.193687	248.072779478	clone_83	pumpkin	False	5	3138.73482327	
0	mixed	25	search	754171.462707	762181.718376	8010.25566877	novel	6011.01967458	True	760466.05019	283.567807554	horizontal_67		False	Z	926.539527566	
0	mixed	26	memory	769245.73005	777256.01198	8010.28193052	None	None	False	0	0	horizontal_50		False	correct	5627.95120264	
0	mixed	27	memory	791863.716878	799874.103252	8010.38637383	novel	6011.1047989	True	798122.99256	248.170883741	horizontal_60		False	correct	5049.67969713	
0	mixed	28	rating	810936.569406	818946.839564	8010.27015801	None	None	False	0	0	takeaway_1	.thermostat	False	7	1411.47101457	
0	mixed	29	search	826557.264515	834567.594441	8010.32992615	4	6011.02631549	True	833024.092898	455.802067253	takeaway_97	knife	False	N	2755.88036955	
0	mixed	30	memory	843350.877595	851361.196051	8010.31845549	None	None	False	0	0	color_45	flowers	False	incorrect	21577.7764563	
0	mixed	31	rating	879403.811939	887414.102624	8010.29068444	4	6011.09996915	True	885622.721793	207.809884201	color_95	flowers	False	1	647.314871218	
0	mixed	32	search	894184.899973	902195.203939	8010.30396625	4	6011.07189624	True	900434.05039	238.078520841	color_69	pillow	False	N	1047.47552072	
0	mixed	33	rating	909192.556331	917202.843092	8010.28676027	None	None	False	0	0	color_62	fruit	False	7	823.693960581	
0	mixed	34	memory	924186.865077	932197.135537	8010.27045987	novel	6011.0640479	True	930750.149873	552.220748478	horizontal_57		False	correct	6309.1078187	
0	mixed	35	rating	944472.429382	952482.742102	8010.31272017	None	None	False	0	0	horizontal_55		False	4	1114.01375633	
0	mixed	36	rating	959866.665439	967876.922919	8010.25747992	4	6011.00065745	True	965882.906374	5.24027696194	takeaway_70	sceneryabovecouch	False	7	1783.65987463	
0	mixed	37	memory	975274.132592	983284.396713	8010.26412083	2	6011.00760021	True	981958.598492	673.458299047	takeaway_30	shotglass	False	incorrect	15903.8309564	
0	mixed	38	memory	1006062.41605	1014072.65632	8010.24027394	4	6011.00126117	True	1012357.1134	283.696097744	color_17	underfacet	False	correct	19310.7991362	
0	mixed	39	rating	1042835.07798	1050845.43205	8010.35407489	None	None	False	0	0	horizontal_62		False	3	832.162320597	
0	mixed	40	rating	1057869.34746	1065879.67286	8010.32539826	2	6011.13015508	True	1064392.1327	511.655088351	clone_97	xtralight	False	6	563.817276131	
0	mixed	41	search	1073116.92821	1081127.17995	8010.2517446	4	6011.07702785	False	0	0	clone_24	light	False	Z	2913.39355627	
0	mixed	42	rating	1090070.46875	1098080.7549	8010.28615655	novel	6011.01122252	True	1096451.27116	369.791191867	takeaway_84	outlet	False	6	4114.28120365	
0	mixed	43	memory	1107757.06637	1115767.38936	8010.32298338	novel	6011.04140845	True	1114077.21077	309.10298895	color_40	whole+pic.in.mirror	False	incorrect	3484.57921723	
0	mixed	44	rating	1127309.60166	1135319.93883	8010.33717077	novel	6011.12472161	True	1133741.13545	420.409067611	takeaway_13	lightreflectionleft	False	5	1199.12780782	
0	mixed	45	memory	1143890.03357	1151900.32124	8010.28766585	None	None	False	0	0	takeaway_49	chairlegs	False	correct	9500.53247976	
0	mixed	46	rating	1169067.18633	1177077.43868	8010.25234831	None	None	False	0	0	clone_93	leftcrack	False	7	3177.33054979	
0	mixed	47	search	1185820.73634	1193831.09706	8010.36071579	2	6011.13407925	True	1192459.9967	628.126281015	takeaway_81	lightabovetv	False	N	888.264677454	
0	mixed	48	memory	1202667.72116	1210678.00249	8010.2813268	None	None	False	0	0	color_10	lighttent	False	correct	11804.5388768	
0	mixed	49	search	1229697.4543	1237707.73261	8010.27830821	4	6011.02722107	True	1235738.9841	30.5025775763	clone_96	NtoMinPoster	False	Z	4455.42202643	
0	mixed	50	memory	1248476.98444	1256487.27271	8010.28826957	2	6010.97077338	True	1254493.14236	5.18714973005	clone_75	plates	False	correct	13114.7614617	
0	mixed	51	search	1276706.21395	1284716.5315	8010.31754992	2	6011.08910222	True	1282722.45338	5.15032289899	takeaway_34	flowersleft	False	Z	1009.75035634	
0	mixed	52	search	1291607.24366	1299617.53223	8010.28857143	None	None	False	0	0	horizontal_20		False	N	945.836183388	
0	mixed	53	search	1306934.74708	1314945.08395	8010.33686891	novel	6011.07823528	True	1313118.20537	172.380057728	takeaway_73	cabnethandle	False	Z	3060.82403959	
0	mixed	54	search	1325194.50755	1333204.81363	8010.30607926	novel	6011.10147845	True	1331818.39995	612.79092442	clone_100	klenexright	False	Z	664.888816174	
0	mixed	55	memory	1339922.21841	1347932.58939	8010.37097901	None	None	False	0	0	takeaway_24	smokedetector	False	incorrect	15039.1592978	
0	mixed	56	memory	1371003.77113	1379014.12732	8010.3561879	novel	6011.11657141	True	1377977.25973	962.372034308	color_92	windows	False	correct	15298.5158787	
0	mixed	57	search	1401485.45431	1409495.80536	8010.3510563	novel	6011.13377739	True	1407998.1484	501.560310577	color_20	limes	False	N	1037.06197956	
0	mixed	58	rating	1416786.41404	1424796.71378	8010.29974022	novel	6011.00035559	True	1423238.11837	440.703972045	clone_88	lightright	False	7	1362.60060215	
0	mixed	59	search	1432300.18576	1440310.79823	8010.61246643	novel	6011.36379415	True	1439101.41234	789.862780812	horizontal_2		False	N	2477.67569568	
0	mixed	60	memory	1449120.84091	1457131.10141	8010.26049851	novel	6010.98707378	True	1455385.2002	253.372220857	clone_87	cup	False	correct	19730.1064175	
0	mixed	61	search	1486026.7233	1494036.98742	8010.26412083	None	None	False	0	0	takeaway_3	wallpaint	False	Z	940.169681134	
0	mixed	62	search	1501047.71218	1509057.95275	8010.2405758	2	6010.99280911	True	1507387.86683	329.161839434	takeaway_98	handletopright	False	Z	2342.93265942	
0	mixed	63	search	1517121.60129	1525131.88111	8010.27981751	2	6011.03356011	True	1525011.66022	1879.02536886	takeaway_22	lightleft	False	N	1767.53153373	
0	mixed	64	search	1533755.30714	1541765.59843	8010.29128816	2	6011.09242267	True	1539989.39176	222.992198145	color_82	vaseleft	False	N	795.112113552	
0	mixed	65	search	1548696.29244	1556706.64954	8010.35709348	None	None	False	0	0	color_8	paintingright	False	Z	896.533508492	
0	mixed	66	rating	1563810.52203	1571820.91263	8010.39059986	2	6011.0721981	True	1570110.48895	288.894718127	horizontal_37		False	7	1830.07707675	
0	mixed	67	rating	1579737.86662	1587748.11745	8010.25083902	2	6011.07672599	True	1587243.42324	1494.47989949	clone_74	chairhole	False	2	1830.47553099	
0	mixed	68	search	1595825.10877	1603835.40882	8010.30004208	2	6010.97771614	True	1602099.64707	263.560575006	clone_92	lights	False	N	935.237300629	
0	mixed	69	memory	1612272.12976	1620282.59069	8010.46093307	4	6011.10540262	True	1619007.46709	724.231934175	horizontal_28		False	correct	3609.04364342	
0	mixed	70	memory	1632184.52023	1640194.82148	8010.30124952	novel	6011.0884985	True	1638519.66251	324.053776833	color_4	wholepic	False	correct	2141.73892675	
0	mixed	71	rating	1650057.73179	1658068.01614	8010.2843454	2	6011.08427247	False	0	0	clone_29	topshelf	False	4	1628.78705096	
0	mixed	72	memory	1665451.91653	1673462.28268	8010.36614926	novel	6011.12291045	True	1671706.30632	243.266878008	color_84	painting	False	correct	15249.849825	
0	mixed	73	rating	1697826.23743	1705836.52871	8010.29128816	novel	6011.11989186	True	1704288.05857	450.701249275	takeaway_36	backwindowbuildings	False	7	1523.36571881	
0	mixed	74	memory	1713926.8604	1721937.1526	8010.29219374	None	None	False	0	0	color_32	bookabovetv	False	correct	11382.5193899	
0	mixed	75	search	1741583.06895	1749593.30017	8010.23121817	novel	6011.05076609	True	1747847.26796	253.148241277	horizontal_76		False	Z	1297.13125022	
0	mixed	76	search	1757030.52793	1765040.85967	8010.3317373	None	None	False	0	0	takeaway_90	exitsign	False	N	2957.21024076	
0	mixed	77	memory	1773984.07934	1781994.40655	8010.32720941	4	6011.06434976	True	1780000.40117	5.25748294033	clone_98	wine	False	incorrect	11385.6898179	
0	mixed	78	rating	1800840.50631	1808850.81783	8010.31151273	None	None	False	0	0	takeaway_92	bottlelidwindow	False	7	1132.50324046	
0	mixed	79	memory	1816061.54518	1824071.76342	8010.21823822	2	6010.89259183	True	1822077.60198	5.16420842544	clone_53	plates	False	incorrect	16692.0652064	
0	mixed	80	memory	1849022.30106	1857032.48428	8010.18322254	4	6011.04382333	True	1855620.78386	587.438971601	color_71	ventreflection	False	correct	13096.2339434	
0	mixed	81	rating	1878357.86473	1886368.1207	8010.25597063	2	6010.98194217	True	1884374.04318	5.19650736754	takeaway_39	light	False	6	943.23958993	
0	mixed	82	memory	1893045.5397	1901055.81197	8010.27227103	2	6011.0706888	True	1899603.75175	547.141362508	takeaway_100	cabnet	False	incorrect	16213.7323631	
0	mixed	83	search	1925686.53092	1933696.76365	8010.23272746	4	6010.93907816	True	1932249.54314	552.073139294	color_14	vaseleft	False	Z	1150.01047452	
0	mixed	84	memory	1940614.15623	1948624.45054	8010.29430675	novel	6011.07672599	True	1947329.05408	703.821115781	horizontal_8		False	correct	2836.68175762	
0	mixed	85	memory	1959686.98341	1967697.14369	8010.16028124	4	6010.99069609	False	0	0	horizontal_75		False	incorrect	1974.3685255	
0	mixed	86	memory	1977733.49237	1985743.68676	8010.19439133	novel	6010.89923273	True	1984088.7584	344.366792824	clone_51	bookshelf	False	correct	17239.4987687	
0	mixed	87	search	2011347.30026	2019357.5505	8010.2502353	novel	6011.13015508	True	2017621.86572	263.435303408	takeaway_53	drawerhandlebottom	False	N	2949.5233944	
0	mixed	88	search	2028807.32806	2036817.65798	8010.32992615	novel	6011.09936543	True	2035254.11691	435.689485819	color_13	wheelsleft	False	Z	1811.94982374	
0	mixed	89	memory	2045974.1533	2053984.41652	8010.26321525	2	6010.99884629	True	2053180.23021	1195.07806383	clone_8	teapotsright	False	correct	15979.3371291	
0	mixed	90	rating	2078268.65747	2086278.77096	8010.11349305	4	6010.86512264	True	2084583.4493	303.926706154	color_55	flowerleft	False	7	1016.87242401	
0	mixed	91	search	2093529.35883	2101539.75638	8010.39754262	4	6011.0884985	True	2099778.6641	238.216772388	takeaway_48	handleleft	False	N	3465.11533137	
0	mixed	92	memory	2110976.1507	2118986.43022	8010.27951565	2	6011.0121281	True	2117589.7811	602.618266954	clone_14	corner	False	incorrect	14315.2865761	
0	mixed	93	rating	2141524.59066	2149534.80105	8010.21038988	4	6011.01122252	True	2147814.14645	278.544567409	horizontal_34		False	4	1645.50220629	
0	mixed	94	rating	2157211.89283	2165222.246	8010.35316931	novel	6011.0951394	True	2163825.72547	602.737501366	clone_57	xtrabushes	False	5	1528.84597389	
0	mixed	95	search	2172819.31217	2180829.64391	8010.3317373	4	6011.08880036	True	2179352.3229	521.92192591	clone_77	drawer	False	Z	2126.31663468	
0	mixed	96	search	2189599.62171	2197609.93503	8010.31332389	2	6011.05499212	False	0	0	color_27	pillowleft	False	Z	2199.19451872	
0	mixed	97	search	2205820.10697	2213830.42814	8010.32117223	novel	6011.09212081	True	2212510.15938	678.960287997	horizontal_46		False	N	3042.43809319	
0	mixed	98	memory	2226918.81495	2234929.06126	8010.24631113	4	6011.0054872	True	2233173.21319	243.392753325	clone_99	light	False	incorrect	14843.3555643	
0	mixed	99	search	2258306.88372	2266317.12882	8010.24510369	4	6010.99884629	False	0	0	color_83	artbehindtable	False	N	965.838586188	
0	mixed	100	rating	2274354.05406	2282364.40693	8010.35286745	2	6011.11747699	True	2280557.75715	192.585611818	horizontal_52		False	7	1542.36413767	
0	mixed	101	search	2290201.47114	2298211.69119	8010.22004937	4	6010.99552584	True	2296217.63027	5.16360470653	clone_85	glassontable	False	Z	1214.90991614	
0	mixed	102	rating	2305995.47483	2314005.72869	8010.25385761	4	6011.01454298	True	2313089.95346	1083.46408871	color_33	chairmiddle	False	4	2583.33157249	
0	mixed	103	memory	2322682.45129	2330692.7139	8010.26261153	4	6010.99220539	True	2329002.38227	308.938777506	takeaway_87	bottleshadow	False	incorrect	13726.6504307	
0	mixed	104	rating	2352564.41073	2360574.69991	8010.28917515	4	6011.07038694	True	2358580.70691	5.22578771692	color_35	v	False	2	4219.16945232	
0	mixed	105	rating	2371250.65579	2379260.9507	8010.29491047	2	6011.038088	False	0	0	horizontal_7		False	6	4060.94810375	
0	mixed	106	search	2391269.68651	2399280.02187	8010.33535961	2	6011.09000779	True	2397812.60335	531.826834203	takeaway_79	cabnetcrack	False	Z	1409.43708679	
