blocknr	blocktype	trialnr	trialtype	trialstart	trialend	duration	probeNback	probeonset	probefixated	probefixtime	probeRT	imagename	imagechange	filler	response	RT	
0	mixed	0	search	152121.259668	160131.35976	8010.10009234	2	6024.34436183	True	158505.185428	359.581398564	color_3	lights	False	N	6013.58501661	
0	mixed	1	memory	190012.957157	198023.208177	8010.2510202	2	6011.03705249	True	196282.195252	258.201042549	horizontal_24		False	incorrect	9022.15017262	
0	mixed	2	memory	216615.96044	224626.106113	8010.14567255	4	6010.96158856	True	222885.236267	258.314238444	horizontal_29		False	correct	5893.33173551	
0	mixed	3	memory	237940.851372	245951.062245	8010.21087339	2	6024.36307689	True	244557.534153	592.319703843	horizontal_80		False	correct	8007.75829567	
0	mixed	4	rating	261211.785896	269221.959339	8010.17344328	4	6024.33047647	True	267408.401429	172.285056844	clone_50	redvase	False	6	2491.19290663	
0	mixed	5	rating	279031.482646	287041.634054	8010.15140781	None	None	False	0	0	color_10	lighttent	False	6	2420.5281811	
0	mixed	6	memory	296597.981913	304608.11038	8010.12846678	novel	6011.05305084	False	0	0	horizontal_2		False	correct	7965.29293135	
0	mixed	7	memory	319149.167437	327159.276585	8010.10914801	2	6024.19222655	True	325776.081617	602.721953755	takeaway_25	plugin	False	correct	10693.6291238	
0	mixed	8	search	350523.478187	358533.603937	8010.12575007	novel	6024.37032143	True	357033.868513	486.020005186	color_52	orange	False	Z	1310.8033256	
0	mixed	9	rating	366583.821258	374593.988664	8010.16740616	2	6024.33349503	True	374269.004761	1660.85000759	clone_39	xtraspots	False	3	3970.04383851	
0	mixed	10	rating	387682.238598	395692.495656	8010.25705731	4	6011.06452136	False	0	0	color_47	potonshelf	False	5	953.837808697	
0	mixed	11	search	402929.600002	410939.810875	8010.21087339	None	None	False	0	0	color_68	vase	False	N	2759.41827573	
0	mixed	12	search	419816.337096	427826.451073	8010.1139777	2	6010.93593082	True	426156.655873	329.382846928	horizontal_21		False	N	2392.31976421	
0	mixed	13	memory	436396.49141	444406.692624	8010.201214	4	6010.97487021	False	0	0	clone_43	butterflyright	False	incorrect	11659.4539249	
0	mixed	14	search	462266.333639	470276.501347	8010.16770802	2	6010.99147227	False	0	0	horizontal_28		False	Z	1645.31198449	
0	mixed	15	memory	478486.646054	486496.779652	8010.13359832	2	6024.38813091	False	0	0	clone_90	pillowsplotch	False	incorrect	13720.2962654	
0	mixed	16	memory	506142.484653	514152.631835	8010.14718183	novel	6024.36277503	False	0	0	takeaway_6	lightsonright	False	incorrect	6023.9914925	
0	mixed	17	rating	526134.647875	534144.840033	8010.19215833	novel	6011.05938981	True	532636.902586	491.195321478	clone_97	xtralight	False	6	2122.17429089	
0	mixed	18	search	542048.438183	550058.572385	8010.13420203	2	6024.28157584	True	548341.049872	268.330113036	clone_34	xtrafruit	False	Z	1109.40519029	
0	mixed	19	rating	557095.833757	565105.981845	8010.1480874	2	6024.3452674	True	563586.099665	465.920640321	horizontal_1		False	7	1192.27032025	
0	mixed	20	search	572489.837574	580499.979323	8010.14174843	novel	6024.30391317	True	579035.877363	521.735875643	horizontal_44		False	Z	1875.27502829	
0	mixed	21	rating	589656.446235	597666.581342	8010.1351076	2	6024.32715606	True	595685.959876	5.18648495362	color_38	bottleright	False	6	1726.93799672	
0	mixed	22	search	605743.547608	613753.29151	8009.74390259	None	None	False	0	0	takeaway_28	ovenknob	False	Z	2596.85327488	
0	mixed	23	search	621937.108965	629947.329799	8010.22083463	4	6024.34858781	False	0	0	takeaway_29	dresserknob	False	N	2610.76339009	
0	mixed	24	rating	640649.775525	648660.011151	8010.23562556	novel	6024.33802286	False	0	0	clone_92	lights	False	6	1289.77998039	
0	mixed	25	memory	655897.147494	663907.395193	8010.24769978	4	6010.96430526	True	662085.500632	177.388833331	clone_11	vaseleft	False	incorrect	9929.74096855	
0	mixed	26	rating	679807.772543	687817.977983	8010.20543998	None	None	False	0	0	horizontal_75		False	4	2522.85062881	
0	mixed	27	search	696507.923562	704518.053538	8010.12997605	4	6010.93683639	True	702822.576453	303.716055192	clone_20	chair	False	Z	1206.3144594	
0	mixed	28	rating	711315.476354	719325.649194	8010.17283957	2	6010.95374031	True	717589.874371	263.444276378	color_54	booktable	False	5	2873.10287454	
0	mixed	29	search	731534.215798	739544.377469	8010.1616709	4	6024.28429255	True	738191.571524	633.07143325	color_66	painting	False	N	1899.17626593	
0	mixed	30	memory	747461.346319	755471.480823	8010.13450389	novel	6010.93532711	False	0	0	clone_80	statue	False	correct	5347.54459994	
0	mixed	31	search	766840.355755	774850.598927	8010.24317195	None	None	False	0	0	color_96	fruit	False	Z	1352.20495037	
0	mixed	32	memory	782874.093565	790884.294477	8010.20091215	2	6024.25893666	True	789202.246954	303.894451922	clone_47	chair	False	incorrect	2989.96752334	
0	mixed	33	memory	801640.16957	809650.21714	8010.04756944	2	6010.87797452	True	807727.100395	76.0528501066	clone_18	wine	False	incorrect	7975.49837134	
0	mixed	34	memory	823431.608097	831441.750147	8010.14205028	2	6024.28972595	True	829461.094269	5.19644619233	clone_57	xtrabushes	False	correct	11463.4997575	
0	mixed	35	rating	848328.448603	856338.643177	8010.19457318	4	6011.0008298	False	0	0	horizontal_13		False	7	1198.2380078	
0	mixed	36	memory	865601.706209	873611.907423	8010.201214	None	None	False	0	0	takeaway_14	sharkteeth	False	incorrect	12766.9154662	
0	mixed	37	search	898908.637632	906918.850316	8010.21268452	4	6024.34677668	False	0	0	clone_83	pumpkin	False	N	912.856668944	
0	mixed	38	rating	921526.453881	929536.678036	8010.22415504	novel	6011.03252465	True	927709.709883	172.223478277	takeaway_40	handleshadow	False	5	1702.59031448	
0	mixed	39	search	941638.591771	949648.745593	8010.15382266	4	6010.96792753	False	0	0	takeaway_84	outlet	False	Z	597.923655255	
0	mixed	40	search	963190.146162	971200.328359	8010.18219709	None	None	False	0	0	takeaway_23	rightknob	False	Z	837.909516334	
0	mixed	41	rating	978477.531822	986487.674778	8010.14295585	4	6024.247768	True	984674.233988	172.454397902	takeaway_4	ceilinglights	False	6	1934.2356002	
0	mixed	42	rating	994911.04644	1002921.29082	8010.24437937	4	6010.96068299	True	1001190.44922	268.442101507	takeaway_71	stickerdesk	False	5	1308.04496805	
0	mixed	43	search	1010011.7935	1018022.01494	8010.22143834	novel	6010.91932876	True	1016893.61065	870.897818519	color_91	cup	False	N	983.123850496	
0	mixed	44	search	1024739.33099	1032749.54065	8010.20966596	novel	6024.34647482	True	1031011.99907	248.321606742	color_15	flowers	False	N	1991.18883158	
0	mixed	45	rating	1040519.81034	1048529.98197	8010.17163214	4	6024.3582472	True	1046549.36111	5.19252206804	color_45	flowers	False	6	1205.00470744	
0	mixed	46	memory	1055700.54735	1063710.78268	8010.2353237	novel	6011.03343022	True	1061934.3977	222.816911527	takeaway_93	statueheadleft	False	correct	10320.7123433	
0	mixed	47	memory	1085515.51795	1093525.74392	8010.22596617	novel	6024.31447812	False	0	0	clone_25	wine	False	correct	9510.4612627	
0	mixed	48	rating	1111158.7749	1119169.03649	8010.26158515	novel	6011.0322228	False	0	0	horizontal_34		False	4	1831.87119454	
0	mixed	49	memory	1132123.98573	1140136.07082	8012.08509554	novel	6024.31266698	True	1138624.19174	475.893349545	horizontal_66		False	correct	6706.38856498	
0	mixed	50	search	1155581.40309	1163591.60974	8010.20664741	novel	6024.32987276	True	1162405.6971	799.964139541	color_90	bookleft	False	Z	594.107897119	
0	mixed	51	search	1170535.58622	1178545.7814	8010.19517689	4	6024.36036019	True	1176889.07406	329.12747699	takeaway_75	soap	False	Z	1487.46046067	
0	mixed	52	rating	1186476.02043	1194486.2467	8010.22626803	4	6011.00656506	True	1192978.24979	491.222790348	horizontal_68		False	5	2661.43802253	
0	mixed	53	rating	1203602.65856	1211612.79971	8010.14114472	4	6024.29334822	True	1209773.96259	147.010677542	takeaway_86	cuponshelf	False	5	750.369848719	
0	mixed	54	search	1218396.85152	1226407.13394	8010.28241319	4	6024.3766604	True	1224740.22599	318.997802792	clone_33	pillow	False	N	1049.20338767	
0	mixed	55	rating	1232764.59299	1240774.72085	8010.12786306	novel	6010.95615516	True	1239125.0383	349.489154475	horizontal_60		False	5	2467.79546619	
0	mixed	56	memory	1251263.9683	1259274.19879	8010.23049401	None	None	False	0	0	color_58	peppers	False	incorrect	9920.89991642	
0	mixed	57	rating	1276293.86318	1284304.37923	8010.51604952	4	6011.29302614	True	1282548.33087	243.174664887	clone_27	bottomshelf	False	5	1085.14474434	
0	mixed	58	rating	1291674.83498	1299684.97341	8010.13842801	2	6024.29576306	True	1297972.51845	273.387705598	clone_23	outlet.tv	False	6	1001.59410005	
0	mixed	59	search	1308881.48329	1316891.61599	8010.13269276	2	6024.29274451	True	1315660.05009	754.274050581	horizontal_48		False	Z	2842.42920201	
0	mixed	60	search	1325741.5454	1333751.68896	8010.14355956	novel	6010.96943681	False	0	0	clone_44	pillow	False	N	574.041132672	
0	mixed	61	rating	1340895.59686	1348905.75189	8010.15503008	novel	6010.93864752	True	1347473.86729	567.331785619	clone_28	wine	False	5	1414.30361433	
0	mixed	62	memory	1356276.22364	1364286.44236	8010.21872163	2	6024.3479841	True	1363252.85095	952.279327622	color_50	lightsintv	False	incorrect	7764.71010833	
0	mixed	63	rating	1379733.66515	1387743.86425	8010.19910101	None	None	False	0	0	color_48	lightorbs	False	5	1626.85380916	
0	mixed	64	rating	1398766.24987	1406776.40672	8010.15684121	2	6010.99841496	True	1404782.45228	5.20399258542	takeaway_42	lights	False	4	1883.6343187	
0	mixed	65	search	1415426.36396	1423436.57785	8010.21389194	2	6011.04973043	True	1421442.59504	5.18135340628	takeaway_97	knife	False	Z	1063.04800019	
0	mixed	66	rating	1430513.86559	1438524.0007	8010.1351076	2	6010.95434402	True	1436788.40276	263.582828153	takeaway_39	light	False	6	1073.97608276	
0	mixed	67	memory	1450226.10503	1458236.29356	8010.18853606	novel	6010.98151104	False	0	0	horizontal_26		False	incorrect	6196.69643065	
0	mixed	68	rating	1471550.72821	1479561.21015	8010.48193982	novel	6011.46266905	True	1477734.43187	172.240985909	color_17	underfacet	False	4	2880.10864391	
0	mixed	69	memory	1487904.70566	1495914.93344	8010.22777731	2	6024.30995028	True	1494288.66855	359.652938369	clone_56	tableleg	False	incorrect	8485.39757869	
0	mixed	70	search	1511735.31087	1519745.53412	8010.22324947	4	6024.35009709	True	1519050.4745	1290.81353437	horizontal_70		False	N	1055.91182915	
0	mixed	71	search	1527929.02617	1535939.15404	8010.12786306	2	6024.35130451	True	1534682.59418	729.216705541	color_20	limes	False	Z	885.758175536	
0	mixed	72	search	1545655.44196	1553665.61299	8010.17102843	None	None	False	0	0	takeaway_73	cabnethandle	False	Z	1855.01537804	
0	mixed	73	rating	1561315.94121	1569326.10077	8010.15955791	2	6010.99358526	True	1567595.36965	268.43485697	horizontal_40		False	3	1636.73264126	
0	mixed	74	rating	1581281.4554	1589291.66115	8010.20574184	novel	6010.95524959	False	0	0	takeaway_89	vent	False	4	2036.24743838	
0	mixed	75	memory	1596888.67833	1604898.90309	8010.22475875	None	None	False	0	0	color_64	flowers	False	correct	9464.15297323	
0	mixed	76	search	1622225.45422	1630235.67144	8010.21721236	novel	6010.95675887	True	1628469.37206	232.9610748	horizontal_19		False	N	878.383538479	
0	mixed	77	memory	1637312.8644	1645323.0638	8010.19940287	2	6024.29153708	True	1643711.93848	374.782550687	clone_76	window	False	correct	8841.48680845	
0	mixed	78	search	1661756.58083	1669766.77963	8010.19879916	4	6011.03282651	False	0	0	clone_81	barsabovecouchleft	False	N	1159.10482876	
0	mixed	79	search	1676190.99468	1684201.16903	8010.17434884	None	None	False	0	0	clone_1	knobonoven	False	Z	2668.31731435	
0	mixed	80	memory	1692371.35709	1700381.47892	8010.12182595	4	6010.97305908	True	1698387.48856	5.15841237153	horizontal_58		False	correct	3811.3742857	
0	mixed	81	memory	1714455.95699	1722466.15669	8010.19970472	novel	6024.3479841	True	1720850.08577	369.780801433	color_61	apple	False	correct	9011.46236719	
0	mixed	82	rating	1740379.17274	1748389.5436	8010.37085692	2	6010.97909619	True	1747013.05647	622.904630799	color_6	wholecolor	False	6	1549.40910234	
0	mixed	83	memory	1755719.85827	1763730.16333	8010.30505237	novel	6011.0403729	True	1762505.62614	774.727492204	clone_26	statue	False	incorrect	8088.04980378	
0	mixed	84	search	1779830.37822	1787840.5752	8010.19698802	novel	6011.03403393	True	1786631.31011	789.897855043	horizontal_65		False	Z	2514.54144645	
0	mixed	85	search	1797570.14297	1805580.33181	8010.18883792	2	6011.00113166	True	1804730.93245	1149.78835386	color_49	spacepink	False	N	1254.35087286	
0	mixed	86	search	1812843.84491	1820854.3513	8010.50639013	None	None	False	0	0	color_28	vase	False	N	683.9947948	
0	mixed	87	memory	1827131.8705	1835142.12575	8010.25524618	4	6011.05969167	False	0	0	clone_35	books	False	correct	3239.82044414	
0	mixed	88	memory	1845924.48415	1853934.72038	8010.23622927	novel	6024.46510412	True	1853184.06075	1235.11149494	clone_2	statueright	False	incorrect	10777.1764476	
0	mixed	89	memory	1876792.40658	1884802.67963	8010.27305566	4	6024.35462493	True	1882953.61927	136.85806231	takeaway_45	midspeaker	False	correct	6401.98035463	
0	mixed	90	search	1899556.96606	1907567.15309	8010.18702678	2	6024.34073956	True	1906133.6433	552.336499095	takeaway_43	reflectionlightlefttele	False	N	1145.33869872	
0	mixed	91	memory	1915097.53713	1923107.73261	8010.19547874	2	6010.94770319	True	1921721.21632	612.731489377	color_76	exit	False	correct	8000.05644702	
0	mixed	92	memory	1938901.56576	1946911.72018	8010.15442637	2	6011.0008298	True	1945206.63412	294.067539009	clone_38	windowtower	False	correct	3422.27290715	
0	mixed	93	memory	1958413.90396	1966424.05416	8010.15020039	4	6010.94468464	True	1965149.11522	724.266573615	color_72	bedspread	False	incorrect	9927.97360332	
0	mixed	94	memory	1985216.86341	1993226.92517	8010.06175666	4	6010.92596958	True	1991567.21406	339.424681112	horizontal_73		False	incorrect	3250.03463794	
0	mixed	95	rating	2004249.34309	2012259.48423	8010.14114472	2	6024.23539192	False	0	0	takeaway_55	vase	False	3	1074.49406718	
0	mixed	96	memory	2019696.59154	2027706.79275	8010.201214	4	6010.99871681	True	2026077.33966	369.749408438	color_88	bowltopshelf	False	incorrect	7553.23814213	
0	mixed	97	memory	2044806.78517	2052817.01718	8010.23200329	4	6011.05123971	False	0	0	color_70	tomato	False	incorrect	10583.7648109	
0	mixed	98	search	2073475.5761	2081485.72932	8010.15321894	novel	6010.97517207	False	0	0	clone_52	latle	False	N	1734.56075918	
0	mixed	99	rating	2089922.19307	2097932.33029	8010.13722059	None	None	False	0	0	clone_22	xtra.orb.by.stair.rail	False	3	1359.34806409	
0	mixed	100	rating	2105156.51913	2113166.70495	8010.18581936	2	6010.95977742	True	2111329.56577	162.086861398	takeaway_54	phonebutton	False	4	1775.5693678	
0	mixed	101	search	2121549.7505	2129560.27017	8010.51967179	4	6024.31477997	True	2129118.25771	1544.19243181	takeaway_53	drawerhandlebottom	False	Z	874.919442255	
0	mixed	102	search	2138516.76522	2146526.94621	8010.18098967	4	6024.31689296	True	2144875.39849	334.316376789	takeaway_27	reflection	False	N	1403.78575368	
