blocknr	blocktype	trialnr	trialtype	trialstart	trialend	duration	probeNback	probeonset	probefixated	probefixtime	probeRT	imagename	imagechange	filler	response	RT	
0	blocked	0	search	312845.060176	320855.358286	8010.29810969	novel	6011.0273931	True	319079.064163	222.976593202	clone_29	topshelf	False	Z	2424.00978495	
0	blocked	1	search	330171.518947	338181.842413	8010.32346557	4	6011.10014033	True	336248.535924	65.9168369384	takeaway_25	plugin	False	N	2577.01592078	
0	blocked	2	search	347804.732252	355814.900262	8010.16800987	None	None	False	0	0	clone_68	platestopshelf	False	N	1191.56518529	
0	blocked	3	search	368796.494006	376806.725708	8010.23170143	novel	6010.94136422	True	375111.446942	304.011571941	takeaway_53	drawerhandlebottom	False	Z	1519.36962867	
0	blocked	4	search	384576.972152	392587.145897	8010.17374513	2	6010.99630197	True	392248.900868	1660.9324142	fillers_1-8_15	filler	True	Z	1570.51002448	
0	blocked	5	search	400384.07699	408394.322879	8010.24588865	novel	6011.00747063	True	406764.86647	369.782008856	color_84	painting	False	Z	1899.0135657	
0	blocked	6	search	416977.578157	424987.703002	8010.12484451	novel	6011.00022609	True	423520.580372	532.001988626	color_51	dots	False	N	1513.09676498	
0	blocked	7	search	432798.048261	440808.244042	8010.1957806	4	6010.98694444	True	439690.213626	881.178420576	color_57	shampoo	False	N	1732.30529325	
0	blocked	8	search	451550.824806	459560.925804	8010.1009979	2	6010.76387306	True	458027.513847	465.925168156	takeaway_64	plant	False	Z	2379.19688871	
0	blocked	9	search	468504.045621	476514.204877	8010.15925606	2	6010.96521083	True	474834.222952	319.212120352	clone_96	NtoMinPoster	False	N	889.458624788	
0	blocked	10	search	483724.751656	491734.916345	8010.16468946	None	None	False	0	0	clone_71	cupsshelf	False	N	3420.36578272	
0	blocked	11	search	501637.661149	509647.885606	8010.22445689	novel	6011.01803558	True	508210.737551	562.058366218	color_12	wine	False	N	1499.03964603	
0	blocked	12	search	517218.261305	525228.449237	8010.18793235	2	6010.97215351	True	523649.84465	420.611191421	fillers_1-8_14	filler	True	Z	1198.10760613	
0	blocked	13	search	532465.636896	540475.843241	8010.20634555	novel	6010.98966114	True	538805.829196	329.202639064	fillers_1-8_1	filler	True	Z	798.451540536	
0	blocked	14	search	550045.401817	558055.608464	8010.20664741	None	None	False	0	0	clone_43	butterflyright	False	N	1234.22313356	
0	blocked	15	search	565452.694832	573462.835373	8010.140541	4	6010.95253289	True	571803.176488	339.529123191	takeaway_18	hanginglightright	False	N	978.609598227	
0	blocked	16	search	580886.658913	588896.832658	8010.17374513	2	6010.94619392	True	587181.309939	283.704832197	horizontal_15		False	N	688.257299399	
0	blocked	17	search	595720.826324	603731.004597	8010.17827297	novel	6010.98030361	True	602375.070521	643.263893438	takeaway_59	spottopright	False	N	381.744852832	
0	blocked	18	search	610168.488316	618178.639723	8010.15140781	2	6010.94106237	True	616503.546352	324.116973921	clone_76	window	False	Z	1069.73863219	
0	blocked	19	search	625495.821562	633506.0104	8010.18883792	None	None	False	0	0	clone_34	xtrafruit	False	Z	2830.01508373	
0	blocked	20	search	643102.254832	651112.447896	8010.1930639	2	6010.96189041	True	649361.454413	248.237690852	horizontal_26		False	Z	1159.19689475	
0	blocked	21	search	658482.852935	666493.074071	8010.22113648	2	6011.04007104	True	664499.072246	5.17924041627	horizontal_65		False	N	834.198502132	
0	blocked	22	search	673263.751867	681273.923499	8010.17163214	2	6011.04550445	True	679482.610243	207.812871188	color_30	chairsright	False	Z	2332.93900915	
0	blocked	23	search	689150.889222	697161.046063	8010.15684121	4	6010.95766443	True	695501.221459	339.374573063	horizontal_35		False	Z	909.5419913	
0	blocked	24	search	704291.566966	712301.790216	8010.22324947	None	None	False	0	0	fillers_1-8_4	filler	True	Z	672.458472954	
0	blocked	25	search	720005.436723	728015.630089	8010.19336575	2	6011.00897991	True	726462.184572	445.738868844	horizontal_63		False	N	1374.22019348	
0	blocked	26	search	736505.655116	744515.849689	8010.19457318	4	6010.99147227	True	742866.128196	349.481608082	clone_45	dressknob	False	N	913.633343707	
0	blocked	27	search	751206.543568	759216.781306	8010.23773855	4	6010.93774196	True	757551.757238	334.275928123	horizontal_19		False	Z	1076.39485264	
0	blocked	28	search	766067.435473	774077.58024	8010.14476698	None	None	False	0	0	horizontal_8		False	N	2631.12718057	
0	blocked	29	search	782447.628787	790457.813098	8010.18431008	None	None	False	0	0	takeaway_41	leftdrawerhandle	False	Z	1042.56769341	
0	blocked	30	search	797801.613479	805811.792658	8010.17917854	novel	6010.94498649	True	804197.523213	384.96474778	clone_60	xtralight	False	N	1376.18587792	
0	blocked	31	search	812929.031608	820939.338471	8010.3068635	4	6010.98905743	True	819527.2541	587.233434988	fillers_1-8_7	filler	True	Z	1168.49435273	
0	blocked	32	search	828203.029665	836213.231785	8010.20211957	2	6010.97788877	True	834467.297706	253.290151867	takeaway_72	paintingwords	False	N	1406.06084023	
0	blocked	33	search	844423.324271	852433.579517	8010.25524618	None	None	False	0	0	color_39	painting	False	N	489.421919132	
0	blocked	34	search	858644.443546	866654.575936	8010.1323909	None	None	False	0	0	horizontal_7		False	Z	1187.9842709	
0	blocked	35	search	873905.117994	881915.274835	8010.15684121	2	6010.98785001	True	880235.208089	319.102244871	clone_32	shelf	False	Z	2478.92790508	
0	blocked	36	search	890418.684145	898428.89381	8010.20966596	4	6010.9824166	True	896444.957666	15.291105127	horizontal_62		False	N	1165.0350862	
0	blocked	37	search	905279.553411	913289.724439	8010.17102843	novel	6010.93502525	True	911766.642589	476.154152886	clone_3	candle	False	Z	1039.84374741	
0	blocked	38	search	920420.231457	928430.453197	8010.22174019	novel	6010.97849248	False	0	0	takeaway_47	appleicon	False	N	1994.71873235	
0	blocked	39	search	936507.216314	944517.451034	8010.23471999	4	6010.94166608	True	942776.650011	258.492031462	horizontal_68		False	N	1328.74744064	
0	blocked	40	rating	952487.702851	960497.886557	8010.18370637	novel	6010.9688331	True	959056.057625	557.385941553	horizontal_79		False	3	2929.24743445	
0	blocked	41	rating	970280.706499	978290.969896	8010.26339628	2	6010.96702196	True	976514.484094	222.810572557	clone_15	xtracupx2	False	2	519.829354925	
0	blocked	42	rating	984688.358723	992698.559937	8010.201214	4	6010.9640034	True	991109.670521	410.34779514	horizontal_39		False	2	599.803008958	
0	blocked	43	rating	999375.946808	1007386.18334	8010.23653112	novel	6010.96822938	True	1006202.16425	815.249207553	takeaway_67	lightreflection	False	4	1847.8580771	
0	blocked	44	rating	1016515.87112	1024526.03672	8010.16559503	4	6011.01773372	True	1022846.12392	319.235061387	color_25	hangingcandle	False	5	1345.22182018	
0	blocked	45	rating	1031683.28242	1039693.4794	8010.19698802	4	6010.97547392	True	1037952.64186	258.383967115	takeaway_70	sceneryabovecouch	False	4	739.770185167	
0	blocked	46	rating	1046917.29636	1054927.50995	8010.21359009	None	None	False	0	0	takeaway_71	stickerdesk	False	6	1606.73512553	
0	blocked	47	rating	1062630.82472	1070641.33685	8010.51212539	2	6011.31415604	True	1069062.53575	420.396873861	horizontal_49		False	3	2191.13383347	
0	blocked	48	rating	1079464.57104	1087474.78403	8010.21298638	novel	6011.00173537	True	1086184.70521	709.132433461	color_20	limes	False	6	1019.01781583	
0	blocked	49	rating	1094938.52135	1102948.72226	8010.20091215	novel	6010.99720753	True	1101329.51747	379.998919357	horizontal_31		False	3	2144.50708621	
0	blocked	50	rating	1111025.52552	1119035.72976	8010.20423256	None	None	False	0	0	horizontal_29		False	5	2155.64918449	
0	blocked	51	rating	1127139.10659	1135149.42673	8010.32014516	4	6011.10829044	True	1133758.13177	607.916890669	takeaway_58	drawerhandle	False	2	1833.6322208	
0	blocked	52	rating	1144452.4298	1152462.57366	8010.14386142	2	6010.99932052	False	0	0	color_7	greenonleft	False	3	2901.39218876	
0	blocked	53	rating	1161565.73014	1169575.84895	8010.11880739	4	6024.40714782	True	1167929.58612	339.44882957	horizontal_37		False	2	475.70831199	
0	blocked	54	rating	1176946.34816	1184956.54757	8010.19940287	4	6010.9531366	True	1183686.53793	729.236628018	horizontal_33		False	7	1646.59124902	
0	blocked	55	rating	1192593.67805	1200603.77	8010.09194223	novel	6010.86771143	True	1199080.55593	476.010167708	takeaway_27	reflection	False	4	3039.10933244	
0	blocked	56	rating	1209546.96135	1217557.04092	8010.07956615	novel	6010.90272669	True	1215841.53631	283.672231779	clone_52	latle	False	6	1999.99547216	
0	blocked	57	rating	1227846.40132	1235856.58684	8010.18551751	4	6010.96943681	True	1234227.25117	369.88041382	horizontal_32		False	6	3316.02995737	
0	blocked	58	rating	1248584.90583	1256595.27638	8010.37055506	4	6011.11161085	True	1254849.38275	253.365313941	clone_37	xtraknob	False	1	1862.50049429	
0	blocked	59	rating	1264098.85201	1272109.05926	8010.20725112	4	6010.95977742	True	1270651.9519	542.140114784	horizontal_25		False	5	1459.92880431	
0	blocked	60	rating	1279479.49056	1287489.69691	8010.20634555	2	6010.99630197	True	1285774.15457	283.667703943	clone_91	platesonwall	False	6	922.03610134	
0	blocked	61	rating	1294740.15113	1302750.37347	8010.2223439	novel	6011.01713001	True	1301009.51811	258.349857419	color_67	lightleft	False	6	714.194855714	
0	blocked	62	rating	1309640.99545	1317291.36382	7650.36836963	2	6010.99992423	True	1315869.85642	217.861044342	color_62	fruit	False	6	911.45183243	
0	blocked	63	rating	1325128.292	1333138.4902	8010.19819545	None	None	False	0	0	takeaway_43	reflectionlightlefttele	False	7	2405.34695145	
0	blocked	64	rating	1341401.96556	1349412.11365	8010.1480874	None	None	False	0	0	horizontal_46		False	3	1699.36740097	
0	blocked	65	rating	1356595.95767	1363593.23433	6997.27665771	novel	6010.97849248	True	1362946.20026	339.26409387	clone_59	statue	False	5	1688.51146191	
0	blocked	66	rating	1371163.5249	1379173.77019	8010.24528494	novel	6011.00837619	True	1377630.53554	456.002265125	color_61	apple	False	6	5376.85539391	
0	blocked	67	rating	1390649.23188	1398659.52184	8010.28995958	4	6011.03614692	True	1397040.14047	379.87244181	color_81	paintings	False	5	637.408496212	
0	blocked	68	rating	1405030.31205	1413040.18696	8009.87490797	novel	6010.98362403	True	1411244.15509	202.859418849	horizontal_1		False	7	968.082681903	
0	blocked	69	rating	1419984.43904	1427994.58833	8010.14929482	4	6010.94981619	True	1426294.17892	298.790071724	horizontal_75		False	3	1386.99442563	
0	blocked	70	rating	1435111.84871	1443122.09551	8010.24679422	4	6011.03554321	True	1441376.30692	253.422666527	color_33	chairmiddle	False	5	2067.2184388	
0	blocked	71	rating	1450919.01181	1458929.20155	8010.18974349	2	6010.94679763	True	1457173.22262	243.26401418	takeaway_17	clock	False	6	1398.29741301	
0	blocked	72	rating	1466206.32472	1474216.53197	8010.20725112	2	6010.99328341	True	1472308.65924	91.341238532	color_74	fruitleft	False	5	1284.04351431	
0	blocked	73	rating	1481653.61996	1489663.85347	8010.23351257	2	6010.92596958	True	1487927.98085	263.43491885	takeaway_77	light	False	4	1558.94412077	
0	blocked	74	rating	1501059.3548	1509069.17869	8009.82389435	2	6010.66094026	True	1508098.12394	1028.10820079	color_8	paintingright	False	5	4160.54045455	
0	blocked	75	rating	1518892.35131	1526902.55675	8010.20543998	None	None	False	0	0	horizontal_3		False	6	1359.33116017	
0	blocked	76	rating	1533886.53002	1541896.73425	8010.20423256	2	6010.96853124	True	1540176.16058	278.662030565	color_35	v	False	7	1234.31248285	
0	blocked	77	rating	1548907.28351	1556917.49227	8010.2087604	2	6010.97758691	True	1555267.74723	349.486135918	horizontal_81		False	5	3031.74767518	
0	blocked	78	rating	1566113.85817	1574124.03614	8010.17797111	4	6010.99449083	True	1573097.30349	972.450836005	horizontal_74		False	2	1470.17740966	
0	blocked	79	rating	1581587.83624	1589598.01995	8010.18370637	novel	6010.9640034	True	1587882.55488	283.75463839	color_47	potonshelf	False	1	2283.89892542	
0	blocked	80	memory	1597808.13507	1605818.30519	8010.17012286	4	6010.98392588	True	1604102.82353	283.704530341	takeaway_44	lightorangeright	False	incorrect	20926.6526827	
0	blocked	81	memory	1633154.24857	1641164.42383	8010.17525441	novel	6010.96219227	True	1639793.00365	627.792882303	horizontal_21		False	correct	6116.0146231	
0	blocked	82	memory	1653386.32914	1661116.64792	7730.31878077	2	6010.91148051	True	1660167.27123	770.030617226	horizontal_23		False	correct	11747.2652627	
0	blocked	83	memory	1678936.31539	1686946.49879	8010.18340452	novel	6010.97366279	True	1685281.57433	334.285285651	color_32	bookabovetv	False	incorrect	10732.742984	
0	blocked	84	memory	1704019.78906	1712030.0111	8010.22204205	4	6011.01169661	True	1710729.36884	698.568087029	takeaway_30	shotglass	False	correct	16072.4852174	
0	blocked	85	memory	1734314.60912	1742324.79313	8010.18400823	2	6010.9244603	True	1740852.22201	526.688422415	clone_1	knobonoven	False	correct	12441.1038743	
0	blocked	86	memory	1761557.27818	1769567.52165	8010.2434738	4	6010.96189041	True	1767806.30854	238.068473555	clone_30	lightonright	False	incorrect	13141.8658487	
0	blocked	87	memory	1788466.70365	1796476.89189	8010.18823421	novel	6011.04912672	True	1795050.00149	572.248713415	clone_63	xtrafruit	False	incorrect	16551.6597386	
0	blocked	88	memory	1820374.21385	1828384.44133	8010.22747545	4	6010.9163102	True	1826653.44609	268.315925817	color_97	vase	False	correct	12931.5448583	
0	blocked	89	memory	1851375.38566	1859385.57118	8010.18551751	novel	6010.98392588	True	1857745.98268	359.613093414	color_41	towelleft	False	correct	9545.73370711	
0	blocked	90	memory	1874886.17081	1882896.32614	8010.15533193	4	6010.93019556	True	1881281.92177	384.820762602	clone_10	vase	False	incorrect	3618.47731298	
0	blocked	91	memory	1892412.66031	1900422.87028	8010.20996782	novel	6011.01803558	False	0	0	takeaway_86	cuponshelf	False	incorrect	11651.5413809	
0	blocked	92	memory	1918242.52507	1926252.78485	8010.25977401	None	None	False	0	0	takeaway_55	vase	False	correct	9095.71633531	
0	blocked	93	memory	1941140.20987	1949150.39991	8010.19004534	4	6010.97094608	True	1947333.5557	182.374886087	clone_87	cup	False	correct	4674.9865146	
0	blocked	94	memory	1959746.25616	1967756.48695	8010.23079586	2	6010.96822938	True	1966116.90208	359.677690538	clone_65	xtraheartnightstand	False	correct	14830.8156051	
0	blocked	95	memory	1988801.52292	1996811.69637	8010.17344328	4	6011.00777248	True	1995116.45141	303.92071337	horizontal_80		False	correct	4248.59629545	
0	blocked	96	memory	2009513.36783	2017523.58746	8010.2196272	novel	6011.01562073	True	2015919.48089	395.097440535	takeaway_39	light	False	incorrect	14119.6900183	
0	blocked	97	memory	2041833.99656	2049844.28954	8010.29297814	2	6011.06210651	True	2048721.8152	876.756536157	horizontal_50		False	correct	1875.88447499	
0	blocked	98	memory	2059427.1352	2067437.36871	8010.23351257	4	6010.99237784	True	2065899.29157	461.16399791	clone_17	dot	False	correct	15463.3974284	
0	blocked	99	memory	2093173.98481	2101184.15765	8010.17283957	None	None	False	0	0	takeaway_91	table	False	correct	3822.7684335	
0	blocked	100	memory	2112526.39774	2120536.62219	8010.22445689	4	6010.99237784	True	2118861.53244	324.142329801	color_27	pillowleft	False	incorrect	14914.747795	
0	blocked	101	memory	2142994.40088	2151004.62956	8010.22868287	2	6010.98483145	True	2149552.20278	546.817067285	color_88	bowltopshelf	False	incorrect	13755.5273555	
0	blocked	102	memory	2173875.63363	2181885.92963	8010.2959967	None	None	False	0	0	takeaway_12	light	False	correct	15854.8804485	
0	blocked	103	memory	2206263.00991	2214273.19693	8010.18702678	4	6010.94830691	True	2212345.08599	71.1277722055	takeaway_20	drawerknob	False	incorrect	8610.77184205	
0	blocked	104	memory	2229987.11197	2237997.23349	8010.12152409	4	6010.90212298	True	2236377.9466	379.932511098	clone_82	rug	False	correct	16264.8204366	
0	blocked	105	memory	2261627.94562	2269638.18638	8010.2407571	None	None	False	0	0	takeaway_87	bottleshadow	False	incorrect	7583.45782366	
0	blocked	106	memory	2285005.50585	2293015.71219	8010.20634555	novel	6011.04067476	True	2291254.57394	238.027421177	horizontal_28		False	incorrect	3626.47890436	
0	blocked	107	memory	2303798.10531	2311808.34999	8010.24468123	None	None	False	0	0	color_36	lights	False	incorrect	13998.8933969	
0	blocked	108	memory	2335585.75404	2343595.91239	8010.15835049	2	6010.99207599	True	2341601.95373	5.20761485351	clone_20	chair	False	correct	17703.5773827	
0	blocked	109	memory	2369345.79776	2377355.97573	8010.17797111	novel	6010.95796629	True	2375630.16336	273.407628075	takeaway_16	pillow	False	incorrect	9212.4692975	
0	blocked	110	memory	2394615.95712	2402626.08951	8010.1323909	None	None	False	0	0	clone_18	wine	False	incorrect	7285.82235006	
0	blocked	111	memory	2417873.49921	2425883.65002	8010.1508041	None	None	False	0	0	clone_74	chairhole	False	correct	17211.3125864	
0	blocked	112	memory	2450247.5404	2458257.70177	8010.16136905	2	6010.91389536	True	2456263.57679	5.12249154085	color_49	spacepink	False	correct	10700.7185072	
0	blocked	113	memory	2476717.16904	2484727.30053	8010.13148533	2	6010.91389535	True	2482925.5171	197.434166023	clone_57	xtrabushes	False	incorrect	11606.6578505	
0	blocked	114	memory	2503973.12488	2511983.27297	8010.1480874	novel	6011.04550445	True	2510647.66525	663.494867396	takeaway_63	ovenlogo	False	correct	9400.78983567	
0	blocked	115	memory	2533374.97151	2541385.19114	8010.2196272	2	6011.00203722	True	2539649.62762	263.654066102	takeaway_5	thermostat	False	incorrect	12246.1739033	
0	blocked	116	memory	2561230.70591	2569240.92735	8010.22143834	4	6010.99871681	True	2567586.02269	344.318064163	horizontal_41		False	correct	10533.8209712	
0	blocked	117	memory	2587740.7817	2595750.49723	8009.71552815	2	6023.8701465	True	2594007.8896	243.237752732	horizontal_10		False	incorrect	2178.48396588	
0	blocked	118	memory	2605879.91636	2613890.19908	8010.28271505	novel	6010.94226979	True	2612098.48858	207.629946623	clone_86	pilarceililng	False	incorrect	13256.1795148	
0	blocked	119	memory	2644291.54312	2652301.73739	8010.19427132	novel	6024.26919976	True	2650842.59432	526.781997687	color_21	checkers	False	correct	15462.3303684	
