blocknr	blocktype	trialnr	trialtype	trialstart	trialend	duration	probeNback	probeonset	probefixated	probefixtime	probeRT	imagename	imagechange	filler	response	RT	
0	blocked	0	search	110366.881368	118377.190435	8010.30906674	None	None	False	0	0	horizontal_45		False	N	2647.12033161	
0	blocked	1	search	171077.035461	179087.290495	8010.25503409	None	None	False	0	0	horizontal_75		False	Z	2376.0877466	
0	blocked	2	search	187724.064631	195734.309101	8010.24446905	None	None	False	0	0	clone_4	carpetsquare	False	N	2152.87314825	
0	blocked	3	search	208955.90272	216966.208466	8010.3057463	None	None	False	0	0	color_37	redtogreenright	False	N	1552.71986457	
0	blocked	4	search	224576.640329	232586.973846	8010.33351727	None	None	False	0	0	takeaway_28	ovenknob	False	Z	1011.69369104	
0	blocked	5	search	248527.576271	256537.901638	8010.32536709	None	None	False	0	0	fillers_1-8_12	filler	True	N	1468.51798412	
0	blocked	6	search	263855.005355	271865.266124	8010.2607694	None	None	False	0	0	takeaway_57	lineinlight	False	N	972.599109156	
0	blocked	7	search	284353.836861	292364.163738	8010.32687638	None	None	False	0	0	horizontal_21		False	N	639.005171437	
0	blocked	8	search	298921.632136	306931.997348	8010.36521239	None	None	False	0	0	takeaway_37	outletbyflower	False	N	2465.67176163	
0	blocked	9	search	321259.799832	329270.20821	8010.40837814	None	None	False	0	0	color_97	vase	False	Z	2703.1081148	
0	blocked	10	search	344690.893416	352701.12883	8010.2354133	None	None	False	0	0	horizontal_79		False	Z	1279.77983659	
0	blocked	11	search	359871.689368	367881.985153	8010.29578497	None	None	False	0	0	fillers_1-8_3	filler	True	N	2074.63689458	
0	blocked	12	search	377318.422235	385328.35579	8009.93355494	None	None	False	0	0	takeaway_59	spottopright	False	N	1337.36746909	
0	blocked	13	search	394671.780952	402682.079756	8010.29880355	None	None	False	0	0	clone_55	darklightright	False	N	1202.13824388	
0	blocked	14	search	413997.769569	422008.169193	8010.39962425	None	None	False	0	0	horizontal_64		False	N	1609.21114751	
0	blocked	15	search	429885.037847	437895.399739	8010.36189195	None	None	False	0	0	takeaway_20	drawerknob	False	N	1764.29903055	
0	blocked	16	search	447651.587835	455661.90475	8010.31691506	None	None	False	0	0	takeaway_8	ventonfireplace	False	Z	2293.44285157	
0	blocked	17	search	464018.698616	472029.024587	8010.32597081	None	None	False	0	0	horizontal_41		False	N	1294.18119712	
0	blocked	18	search	480172.55703	488182.836817	8010.27978648	None	None	False	0	0	takeaway_99	blockoncushion	False	N	1396.35813925	
0	blocked	19	search	495420.06036	503430.349504	8010.28914409	None	None	False	0	0	fillers_1-8_15	filler	True	N	1169.67911249	
0	blocked	20	search	512840.060046	520850.413184	8010.35313806	None	None	False	0	0	horizontal_27		False	Z	1488.00535617	
0	blocked	21	search	527727.796205	535738.038259	8010.24205418	None	None	False	0	0	takeaway_81	lightabovetv	False	Z	2760.15904313	
0	blocked	22	search	544481.386508	552491.639127	8010.25261922	None	None	False	0	0	color_49	spacepink	False	Z	555.761993135	
0	blocked	23	search	558409.382422	566419.745823	8010.36340124	None	None	False	0	0	horizontal_67		False	Z	1374.08582195	
0	blocked	24	search	573163.783819	581174.084735	8010.30091656	None	None	False	0	0	horizontal_4		False	N	2299.48001879	
0	blocked	25	search	593262.824452	601273.065903	8010.24145047	None	None	False	0	0	fillers_1-8_5	filler	True	N	1373.62186565	
0	blocked	26	search	614667.92924	622678.335807	8010.40656699	None	None	False	0	0	clone_7	xtralight	False	N	10418.6491718	
0	blocked	27	search	638672.166727	646683.397066	8011.23033846	None	None	False	0	0	fillers_1-8_14	filler	True	Z	1174.20064887	
0	blocked	28	search	653293.291017	661303.525525	8010.23450772	None	None	False	0	0	clone_57	xtrabushes	False	Z	624.851938474	
0	blocked	29	search	674751.719989	682762.043545	8010.32355594	None	None	False	0	0	horizontal_80		False	N	1182.09364129	
0	blocked	30	search	690359.019769	698369.437807	8010.41803761	None	None	False	0	0	takeaway_7	drawerhandles	False	N	1198.46462763	
0	blocked	31	search	711790.948596	719801.239249	8010.29065338	None	None	False	0	0	clone_80	statue	False	N	894.383985569	
0	blocked	32	search	729730.770415	737741.038429	8010.268014	None	None	False	0	0	clone_27	bottomshelf	False	N	908.939897585	
0	blocked	33	search	749389.92101	757400.225549	8010.30453886	None	None	False	0	0	clone_68	platestopshelf	False	N	1134.72723475	
0	blocked	34	search	771834.732246	779845.080856	8010.34861018	None	None	False	0	0	color_1	oranges	False	N	743.087443537	
0	blocked	35	search	786789.022136	794799.352031	8010.32989497	None	None	False	0	0	horizontal_48		False	Z	1367.14670196	
0	blocked	36	search	801556.781067	809567.029762	8010.24869507	None	None	False	0	0	color_94	fruit	False	N	2375.19907559	
0	blocked	37	search	818217.15932	826227.344624	8010.18530481	None	None	False	0	0	clone_87	cup	False	N	2362.6299953	
0	blocked	38	search	834144.33116	842154.64717	8010.31600948	None	None	False	0	0	takeaway_34	flowersleft	False	N	1307.20638539	
0	blocked	39	search	852150.860055	860161.196591	8010.33653585	None	None	False	0	0	color_73	fruitleft	False	N	1249.79201959	
0	blocked	40	rating	870104.04786	878114.360851	8010.3129909	None	None	False	0	0	color_54	booktable	False	5	3861.63597572	
0	blocked	41	rating	888803.518582	896813.803802	8010.28521993	None	None	False	0	0	clone_18	wine	False	3	1668.56616071	
0	blocked	42	rating	904317.609934	912327.926547	8010.3166132	None	None	False	0	0	horizontal_7		False	3	1156.93012462	
0	blocked	43	rating	920857.979565	928868.329685	8010.35011948	None	None	False	0	0	horizontal_76		False	5	2160.25720747	
0	blocked	44	rating	942862.856993	950873.267484	8010.41049115	None	None	False	0	0	color_81	paintings	False	6	1016.31001095	
0	blocked	45	rating	957217.509173	965227.815222	8010.30604815	None	None	False	0	0	clone_25	wine	False	6	1504.2459397	
0	blocked	46	rating	972305.062889	980315.421461	8010.35857151	None	None	False	0	0	horizontal_78		False	2	1688.47734191	
0	blocked	47	rating	992803.912205	1000814.26142	8010.3492139	None	None	False	0	0	horizontal_43		False	2	610.439711037	
0	blocked	48	rating	1015835.12949	1023845.42165	8010.29216267	None	None	False	0	0	clone_9	bookshelf	False	3	4424.37391557	
0	blocked	49	rating	1046596.78243	1053754.06694	7157.28450633	None	None	False	0	0	color_23	bluebooks	False	5	1768.65031882	
0	blocked	50	rating	1066842.36051	1074852.75923	8010.39871867	None	None	False	0	0	color_55	flowerleft	False	5	1613.76498274	
0	blocked	51	rating	1083316.12962	1091326.43205	8010.30242585	None	None	False	0	0	color_33	chairmiddle	False	3	750.431355598	
0	blocked	52	rating	1098323.79471	1106334.04491	8010.25020436	None	None	False	0	0	takeaway_30	shotglass	False	5	1822.57731498	
0	blocked	53	rating	1113904.47632	1121914.74584	8010.26952329	None	None	False	0	0	horizontal_42		False	4	1238.93025019	
0	blocked	54	rating	1131444.43693	1139454.78675	8010.34981762	None	None	False	0	0	color_91	cup	False	6	2778.73087878	
0	blocked	55	rating	1147571.63039	1155581.93191	8010.30152028	None	None	False	0	0	color_32	bookabovetv	False	2	1907.2905435	
0	blocked	56	rating	1164498.49614	1172508.89546	8010.39932239	None	None	False	0	0	takeaway_97	knife	False	3	2188.20597124	
0	blocked	57	rating	1184211.05363	1192221.40345	8010.34981762	None	None	False	0	0	horizontal_81		False	4	3544.62191033	
0	blocked	58	rating	1203310.40186	1211320.61705	8010.21518879	None	None	False	0	0	takeaway_36	backwindowbuildings	False	7	1319.75433559	
0	blocked	59	rating	1218091.41448	1224222.4358	6131.02131965	None	None	False	0	0	color_16	flowersleft	False	6	1124.4646542	
0	blocked	60	rating	1231273.1136	1239283.38282	8010.26922144	None	None	False	0	0	takeaway_10	leftoflight	False	6	1583.24438574	
0	blocked	61	rating	1246480.60892	1254490.9044	8010.29548311	None	None	False	0	0	takeaway_1	.thermostat	False	5	2084.87623203	
0	blocked	62	rating	1263460.82693	1271471.12393	8010.2969924	None	None	False	0	0	horizontal_40		False	1	856.434956164	
0	blocked	63	rating	1277655.3997	1285279.2703	7623.87059694	None	None	False	0	0	clone_42		False	1	615.867124364	
0	blocked	64	rating	1291716.73611	1299727.03039	8010.29427568	None	None	False	0	0	color_56	book	False	5	1080.10777551	
0	blocked	65	rating	1306364.53412	1314374.86552	8010.33140426	None	None	False	0	0	color_9	chairs	False	3	834.738584623	
0	blocked	66	rating	1320785.68841	1328795.98299	8010.29457754	None	None	False	0	0	horizontal_11		False	5	1434.77987885	
0	blocked	67	rating	1336139.83407	1344150.1531	8010.31902806	None	None	False	0	0	takeaway_54	phonebutton	False	4	5173.62349569	
0	blocked	68	rating	1355212.61424	1363222.88437	8010.27012701	None	None	False	0	0	horizontal_57		False	4	3111.36822735	
0	blocked	69	rating	1373898.79655	1381909.08358	8010.28703108	None	None	False	0	0	color_74	fruitleft	False	3	2145.12051997	
0	blocked	70	rating	1389599.38264	1397609.7391	8010.3564585	None	None	False	0	0	horizontal_47		False	4	1030.61206009	
0	blocked	71	rating	1404260.69545	1411737.73338	7477.03793635	None	None	False	0	0	color_46	lemon	False	6	2126.41556478	
0	blocked	72	rating	1419494.76034	1427504.99032	8010.22997985	None	None	False	0	0	takeaway_93	statueheadleft	False	4	985.585055838	
0	blocked	73	rating	1434822.29085	1442832.56973	8010.2788809	None	None	False	0	0	horizontal_55		False	6	2903.16685643	
0	blocked	74	rating	1453002.01521	1461012.32427	8010.30906674	None	None	False	0	0	horizontal_50		False	3	1832.37744852	
0	blocked	75	rating	1469075.55786	1477086.23158	8010.67371164	None	None	False	0	0	color_95	flowers	False	7	1289.01368384	
0	blocked	76	rating	1483990.21949	1492000.50954	8010.29004966	None	None	False	0	0	horizontal_19		False	1	1915.84943546	
0	blocked	77	rating	1499371.06633	1507381.29088	8010.2245464	None	None	False	0	0	horizontal_77		False	3	1438.82659203	
0	blocked	78	rating	1517097.60771	1525107.98802	8010.38030531	None	None	False	0	0	takeaway_38	reflectionlight	False	4	3853.27359355	
0	blocked	79	rating	1537423.23259	1545433.51509	8010.2825032	None	None	False	0	0	horizontal_59		False	2	818.063626913	
0	blocked	80	memory	1552111.04101	1560121.26405	8010.22303711	None	None	False	0	0	horizontal_38		False	correct	3521.9909853	
0	blocked	81	memory	1569184.4578	1577194.74483	8010.28703108	None	None	False	0	0	color_89	garlic	False	correct	13504.1976424	
0	blocked	82	memory	1596440.73132	1604451.02378	8010.29246453	None	None	False	0	0	horizontal_53		False	incorrect	6215.59931563	
0	blocked	83	memory	1617486.11361	1625496.45467	8010.34106372	None	None	False	0	0	horizontal_18		False	correct	5185.97010636	
0	blocked	84	memory	1636238.91123	1644249.22604	8010.31480205	None	None	False	0	0	color_34	IAcolor	False	correct	9128.7519485	
0	blocked	85	memory	1658843.66333	1666854.02824	8010.36491054	None	None	False	0	0	horizontal_51		False	incorrect	2347.83953934	
0	blocked	86	memory	1674477.71802	1682488.0455	8010.3274801	None	None	False	0	0	takeaway_9	overheadlight	False	incorrect	9686.72263926	
0	blocked	87	memory	1697668.89428	1705679.21391	8010.31963178	None	None	False	0	0	horizontal_26		False	incorrect	1866.02227956	
0	blocked	88	memory	1712836.45676	1720846.73927	8010.2825032	None	None	False	0	0	takeaway_13	lightreflectionleft	False	incorrect	9802.1288259	
0	blocked	89	memory	1736320.86004	1744331.20684	8010.34679903	None	None	False	0	0	takeaway_84	outlet	False	correct	9330.73594276	
0	blocked	90	memory	1762510.93874	1770521.24479	8010.30604815	None	None	False	0	0	clone_98	wine	False	incorrect	8177.59836658	
0	blocked	91	memory	1784129.34631	1792139.6107	8010.2643917	None	None	False	0	0	clone_69	hangingspat	False	correct	11614.6328255	
0	blocked	92	memory	1809213.15577	1817223.44733	8010.29155895	None	None	False	0	0	color_50	lightsintv	False	incorrect	7519.73368848	
0	blocked	93	memory	1832550.9395	1840561.19061	8010.25110993	None	None	False	0	0	clone_61	towel	False	incorrect	10592.4012591	
0	blocked	94	memory	1856821.6645	1864832.01431	8010.34981762	None	None	False	0	0	takeaway_6	lightsonright	False	correct	8984.02142953	
0	blocked	95	memory	1882398.62872	1890408.89854	8010.26982515	None	None	False	0	0	horizontal_34		False	incorrect	3173.8387207	
0	blocked	96	memory	1899885.31858	1907895.62855	8010.30997231	None	None	False	0	0	horizontal_56		False	incorrect	2041.51367479	
0	blocked	97	memory	1915719.2518	1923729.58411	8010.33230983	None	None	False	0	0	color_66	painting	False	correct	6644.61037934	
0	blocked	98	memory	1936857.86033	1944868.2014	8010.34106372	None	None	False	0	0	clone_1	knobonoven	False	incorrect	7793.67920667	
0	blocked	99	memory	1959969.09604	1967979.37553	8010.27948462	None	None	False	0	0	clone_35	books	False	incorrect	9378.12378125	
0	blocked	100	memory	1986039.16159	1994049.4447	8010.28310692	None	None	False	0	0	takeaway_16	pillow	False	correct	4422.38104668	
0	blocked	101	memory	2004125.67782	2012135.94403	8010.26620285	None	None	False	0	0	horizontal_37		False	correct	2981.01974999	
0	blocked	102	memory	2020972.58009	2028983.91065	8011.33055543	None	None	False	0	0	clone_26	statue	False	correct	10120.460503	
0	blocked	103	memory	2044870.13238	2052880.35663	8010.22424454	None	None	False	0	0	takeaway_39	light	False	incorrect	7691.8382329	
0	blocked	104	memory	2068087.99383	2076098.31617	8010.32234851	None	None	False	0	0	takeaway_49	chairlegs	False	incorrect	5044.42721169	
0	blocked	105	memory	2092465.35511	2100475.59415	8010.2390356	None	None	False	0	0	clone_23	outlet.tv	False	correct	5458.72841562	
0	blocked	106	memory	2112471.07684	2120481.33821	8010.26137312	None	None	False	0	0	horizontal_61		False	correct	1948.77161759	
0	blocked	107	memory	2128784.86223	2136795.16556	8010.30333143	None	None	False	0	0	horizontal_31		False	correct	6138.66165662	
0	blocked	108	memory	2148817.23925	2156827.64552	8010.40626513	None	None	False	0	0	horizontal_60		False	correct	3786.07177226	
0	blocked	109	memory	2166863.67624	2174874.01006	8010.33381912	None	None	False	0	0	horizontal_9		False	correct	2424.66822748	
0	blocked	110	memory	2183630.68263	2191640.9588	8010.27616418	None	None	False	0	0	color_78	ovenclock	False	correct	4148.26316736	
0	blocked	111	memory	2201943.72092	2209953.92253	8010.20160516	None	None	False	0	0	clone_58	xtrapillow	False	correct	5163.29571373	
0	blocked	112	memory	2222242.63013	2230253.03639	8010.40626513	None	None	False	0	0	horizontal_6		False	incorrect	3082.3457534	
0	blocked	113	memory	2240742.26941	2248752.55463	8010.28521993	None	None	False	0	0	horizontal_8		False	correct	3585.1802034	
0	blocked	114	memory	2259028.64998	2267038.94335	8010.2933701	None	None	False	0	0	takeaway_18	hanginglightright	False	incorrect	9684.67241727	
0	blocked	115	memory	2283179.47623	2291189.75843	8010.28220134	None	None	False	0	0	horizontal_54		False	correct	2774.51784164	
0	blocked	116	memory	2302398.8207	2310409.09173	8010.27103259	None	None	False	0	0	clone_22	xtra.orb.by.stair.rail	False	incorrect	12920.0461723	
0	blocked	117	memory	2329655.10147	2337665.502	8010.40052982	None	None	False	0	0	color_98	tv	False	incorrect	3484.86542551	
0	blocked	118	memory	2348248.0669	2356258.3488	8010.28189949	None	None	False	0	0	horizontal_58		False	incorrect	5440.84934491	
0	blocked	119	memory	2367840.61124	2375850.97766	8010.36641983	None	None	False	0	0	horizontal_68		False	incorrect	2362.95268189	
