blocknr	blocktype	trialnr	trialtype	trialstart	trialend	duration	probeNback	probeonset	probefixated	probefixtime	probeRT	imagename	imagechange	filler	response	RT	
0	mixed	0	search	1089217.38773	1097227.6457	8010.25796288	None	None	False	0	0	horizontal_66		False	N	2259.93852406	
0	mixed	1	memory	1107356.99812	1115367.23555	8010.23743669	None	None	False	0	0	clone_44	pillow	False	correct	6351.90762249	
0	mixed	2	search	1131041.04181	1139051.23156	8010.18974349	4	6011.01320589	True	1137335.82445	283.769429321	horizontal_2		False	N	1731.45073971	
0	mixed	3	search	1151233.08936	1159243.38083	8010.29146886	2	6024.30210203	True	1157526.00955	268.618083391	horizontal_49		False	Z	1122.93013761	
0	mixed	4	memory	1167893.25144	1175903.43062	8010.17917854	4	6010.91751762	True	1174203.00884	298.839877918	clone_85	glassontable	False	incorrect	7278.23007503	
0	mixed	5	memory	1189991.19728	1198001.40816	8010.21087339	novel	6010.98120918	True	1196311.28539	309.106896467	takeaway_95	drawerknob	False	incorrect	7979.68661943	
0	mixed	6	rating	1213528.67976	1221538.8194	8010.13963544	4	6010.91208422	True	1219727.27879	187.68694302	horizontal_79		False	3	3540.58314299	
0	mixed	7	memory	1231868.11501	1239878.30928	8010.19427132	2	6011.00535764	True	1238157.76882	278.648447058	clone_48	llightswitch	False	incorrect	3149.97671183	
0	mixed	8	rating	1250167.64765	1258177.78909	8010.14144657	None	None	False	0	0	color_84	painting	False	5	1980.79141136	
0	mixed	9	rating	1266627.795	1274637.96029	8010.16529317	2	6010.97185165	True	1272988.27381	349.506963962	clone_64	xtraglass	False	5	2864.16673785	
0	mixed	10	rating	1284034.38318	1292044.48991	8010.10673316	None	None	False	0	0	color_15	flowers	False	7	1049.3162817	
0	mixed	11	rating	1299414.99939	1307425.12635	8010.1269575	novel	6010.90031185	True	1306119.63508	693.735376977	clone_91	platesonwall	False	7	1113.67222272	
0	mixed	12	rating	1314875.49961	1322885.72829	8010.22868287	novel	6011.07116218	True	1321540.01716	653.446392386	takeaway_21	bear	False	7	1340.73020709	
0	mixed	13	memory	1331269.07992	1339279.29774	8010.21781607	4	6010.94317536	True	1337887.7625	607.739399506	color_28	vase	False	incorrect	9242.50877117	
0	mixed	14	search	1355712.8202	1363723.05221	8010.23200329	4	6010.94468464	True	1361987.19317	263.428278025	takeaway_25	plugin	False	N	1294.29423265	
0	mixed	15	search	1371973.11673	1379983.2781	8010.16136905	2	6010.98785001	True	1378318.55377	334.449193306	clone_92	lights	False	Z	681.758043926	
0	mixed	16	rating	1387207.15151	1395217.35725	8010.20574184	4	6010.98030361	True	1393835.7926	617.660793259	clone_99	light	False	6	1015.37260617	
0	mixed	17	search	1402494.45868	1410504.6768	8010.21811792	novel	6010.95072175	True	1408900.48662	395.077216202	horizontal_1		False	N	1279.72214785	
0	mixed	18	search	1418101.29674	1426111.9121	8010.61536005	2	6011.35430285	True	1424518.08433	405.433282189	color_34	IAcolor	False	N	1000.15304085	
0	mixed	19	search	1434268.67664	1442278.86518	8010.18853606	novel	6010.93291226	True	1441803.61327	1524.00371765	clone_82	rug	False	Z	1696.75514158	
0	mixed	20	memory	1451515.20281	1459525.43965	8010.23683298	4	6011.01592259	True	1457875.77068	349.551940464	horizontal_40		False	incorrect	4017.74821067	
0	mixed	21	memory	1469761.31544	1477771.51605	8010.20061029	2	6011.04973043	True	1475954.7304	182.365226704	color_6	wholecolor	False	incorrect	6531.07770642	
0	mixed	22	memory	1490739.85199	1498750.03871	8010.18672493	None	None	False	0	0	takeaway_51	lightright	False	correct	11594.7034585	
0	mixed	23	search	1517276.08962	1525286.24072	8010.15110595	None	None	False	0	0	color_86	buildingoutside	False	N	1223.38319285	
0	mixed	24	search	1532576.73942	1540586.97927	8010.23985154	novel	6010.98483145	False	0	0	color_7	greenonleft	False	Z	711.837966265	
0	mixed	25	rating	1547610.80535	1555621.02347	8010.21811792	2	6011.05576754	True	1553829.66493	207.803815517	horizontal_12		False	6	1298.6014119	
0	mixed	26	search	1563711.19079	1571721.37087	8010.1800841	4	6010.95072175	True	1570086.88192	364.740414647	horizontal_36		False	N	1803.22870913	
0	mixed	27	rating	1580664.52329	1588674.68617	8010.16287833	None	None	False	0	0	takeaway_55	vase	False	4	1988.18174491	
0	mixed	28	memory	1596751.57365	1604761.78392	8010.21026967	None	None	False	0	0	takeaway_93	statueheadleft	False	incorrect	12425.8441622	
0	mixed	29	memory	1624514.00746	1632524.18936	8010.18189524	novel	6010.92778072	True	1630717.53821	192.602965249	horizontal_7		False	incorrect	2838.91801629	
0	mixed	30	rating	1641920.52712	1649930.60699	8010.079868	None	None	False	0	0	takeaway_92	bottlelidwindow	False	6	2384.11623136	
0	mixed	31	rating	1660659.78566	1668669.99412	8010.20845854	novel	6011.04459888	True	1666954.43609	283.605823521	horizontal_28		False	3	1071.04778044	
0	mixed	32	rating	1677346.56478	1685356.80734	8010.24256824	2	6011.0062632	True	1683656.59233	299.021293204	clone_13	xtrapillow	False	7	959.863452547	
0	mixed	33	search	1695406.15502	1703416.35623	8010.201214	2	6011.00958362	True	1701533.79501	116.630408764	clone_96	NtoMinPoster	False	Z	1569.19091499	
0	mixed	34	rating	1711413.24953	1719423.42328	8010.17374513	novel	6010.92929	True	1717647.09414	222.915316491	horizontal_73		False	6	1260.46375301	
0	mixed	35	memory	1727087.04915	1735097.25972	8010.21057153	novel	6010.93562897	True	1734971.4209	1873.43612325	clone_67	lightleft	False	incorrect	10695.2953673	
0	mixed	36	search	1752143.93205	1760154.06867	8010.13661688	novel	6010.93713824	True	1758924.5083	769.639110359	horizontal_32		False	Z	1374.07741573	
0	mixed	37	search	1767711.15245	1775721.26039	8010.10794059	2	6010.99509454	True	1773990.54346	268.395917583	horizontal_61		False	N	1491.90739912	
0	mixed	38	search	1783851.46012	1791861.64654	8010.18642307	novel	6010.91812133	True	1790034.72759	172.349352112	horizontal_20		False	N	599.262989078	
0	mixed	39	rating	1798552.32744	1806562.58239	8010.25494432	2	6011.03373207	True	1805373.62342	810.26224923	horizontal_11		False	7	1135.28509216	
0	mixed	40	rating	1816292.20962	1824302.22066	8010.0110449	novel	6010.82756462	True	1822612.08552	309.048336458	clone_51	bookshelf	False	6	2056.48716615	
0	mixed	41	search	1835151.3254	1843161.51877	8010.19336575	novel	6010.96038113	True	1841486.38374	324.09795701	horizontal_68		False	Z	1132.81017713	
0	mixed	42	memory	1853730.70848	1861740.87709	8010.16861359	4	6010.96913495	True	1861169.65801	1427.98039507	color_80	backchair	False	correct	7744.80906267	
0	mixed	43	rating	1875935.33798	1883945.47791	8010.13993729	4	6010.93079927	True	1882179.28479	233.016012541	horizontal_35		False	4	2179.78164361	
0	mixed	44	rating	1892955.28823	1900965.53683	8010.24860535	4	6011.01562073	True	1899290.4495	324.145650214	horizontal_65		False	5	2386.12598673	
0	mixed	45	search	1909615.42948	1917625.63492	8010.20543998	2	6011.00475393	True	1915839.19814	212.763908681	clone_56	tableleg	False	N	1122.96122875	
0	mixed	46	memory	1924089.73416	1932100.00842	8010.27426309	novel	6011.04429702	True	1930445.25741	344.478953261	clone_63	xtrafruit	False	incorrect	10202.4947771	
0	mixed	47	rating	1948133.61945	1956143.88164	8010.26218886	4	6011.01562073	True	1954636.06041	491.425335535	horizontal_51		False	3	2342.44354015	
0	mixed	48	rating	1963927.48067	1971937.63872	8010.15804864	2	6010.94377907	True	1970769.25153	830.827075613	color_68	vase	False	6	740.307790202	
0	mixed	49	search	1979254.78917	1987264.99249	8010.20332699	None	None	False	0	0	horizontal_8		False	Z	1529.88930045	
0	mixed	50	search	1994342.23315	2002352.47239	8010.23924782	2	6010.94347721	True	2000723.02595	369.849322681	takeaway_72	paintingwords	False	N	1914.20385102	
0	mixed	51	memory	2010935.71077	2018945.90051	8010.18974349	novel	6010.95011804	True	2017189.8757	243.214811698	horizontal_55		False	correct	2282.96981352	
0	mixed	52	memory	2027555.85161	2035565.9997	8010.1480874	2	6010.97547392	True	2033815.09858	248.271498692	takeaway_91	table	False	incorrect	12043.5375558	
0	mixed	53	search	2053825.54158	2061835.73374	8010.19215833	4	6010.88823762	True	2060140.43022	304.000403279	color_30	chairsright	False	Z	797.528163893	
0	mixed	54	search	2070205.76116	2078215.97233	8010.21117524	2	6010.98151104	True	2076221.97081	5.22814104264	horizontal_46		False	N	1408.894058	
0	mixed	55	search	2085413.1623	2093423.34057	8010.17827297	4	6010.90725453	True	2091657.21748	233.147923489	color_75	lampchord	False	Z	857.092145382	
0	mixed	56	rating	2100540.25291	2108550.71221	8010.45930064	None	None	False	0	0	clone_70	cabnethandleright	False	5	849.757051425	
0	mixed	57	rating	2115401.33197	2123411.54043	8010.20845854	4	6011.07629373	True	2121746.65974	334.251477811	takeaway_44	lightorangeright	False	7	718.896560384	
0	mixed	58	search	2132448.04565	2140458.2372	8010.19155462	None	None	False	0	0	horizontal_67		False	N	765.2256779	
0	mixed	59	memory	2147322.20774	2155332.3845	8010.17676369	None	None	False	0	0	takeaway_81	lightabovetv	False	correct	20464.1499547	
0	mixed	60	search	2185400.57854	2193410.77311	8010.19457318	4	6011.00173537	True	2192145.99705	734.416774001	horizontal_80		False	Z	1643.37014665	
0	mixed	61	rating	2202433.89767	2210444.06387	8010.16619874	None	None	False	0	0	color_48	lightorbs	False	5	1641.70420494	
0	mixed	62	search	2218254.3228	2226264.56326	8010.24045525	None	None	False	0	0	clone_21	book	False	N	1380.86283042	
0	mixed	63	rating	2234754.53455	2242764.73305	8010.1984973	4	6010.9851333	True	2241408.6891	643.169412598	color_16	flowersleft	False	5	2842.87926888	
0	mixed	64	memory	2252014.4438	2260024.59822	8010.15442637	novel	6010.96370155	True	2258526.87376	501.466264152	color_94	fruit	False	correct	9198.85771759	
0	mixed	65	search	2275192.07743	2283202.15791	8010.08047172	novel	6010.83782771	True	2281481.465	278.549740239	color_43	purpleright	False	N	1297.89084354	
0	mixed	66	memory	2292731.79214	2300742.03169	8010.23954968	4	6010.92325288	True	2300019.15516	1276.43976877	clone_1	knobonoven	False	correct	9302.23394362	
0	mixed	67	memory	2317148.85351	2325159.06438	8010.21087339	4	6010.98090732	True	2323893.85425	734.019833732	takeaway_32	ceilingfan	False	correct	3498.03718319	
0	mixed	68	memory	2335435.09544	2343445.22239	8010.1269575	None	None	False	0	0	takeaway_57	lineinlight	False	correct	12907.3055423	
0	mixed	69	rating	2363597.38937	2371607.55678	8010.16740616	4	6010.90604711	True	2369932.40756	324.112144229	horizontal_25		False	4	2034.43026695	
0	mixed	70	rating	2379444.43938	2387454.67078	8010.23139958	novel	6010.97819062	True	2385941.67	486.252434089	clone_32	shelf	False	7	2069.63569939	
0	mixed	71	search	2395384.83586	2403395.08205	8010.24619051	2	6010.98573702	True	2401947.94226	552.120672257	takeaway_69	whitespotonorange	False	Z	1806.16365229	
0	mixed	72	search	2411285.31916	2419295.50166	8010.18249895	2	6010.93381783	True	2417301.42467	5.17169402307	horizontal_16		False	Z	609.407756062	
0	mixed	73	rating	2425772.94111	2433783.20209	8010.26098144	2	6010.99328341	False	0	0	takeaway_71	stickerdesk	False	4	3625.34453057	
0	mixed	74	search	2443459.38969	2451469.62803	8010.23834226	None	None	False	0	0	clone_42		False	N	1866.48740462	
0	mixed	75	memory	2461025.80897	2469035.99901	8010.19004534	novel	6011.0008298	True	2467649.62279	612.812990421	clone_52	latle	False	correct	12118.2616371	
0	mixed	76	search	2488761.67404	2496771.76991	8010.09586636	2	6010.89548216	True	2495932.06767	1159.49814676	clone_24	light	False	Z	1035.33885266	
0	mixed	77	search	2504688.69861	2512698.92277	8010.22415504	4	6010.96068299	True	2511267.13084	567.471544817	horizontal_62		False	N	995.789112728	
0	mixed	78	memory	2519669.51296	2527679.64204	8010.12907049	novel	6010.93019556	True	2526192.29447	511.851308288	takeaway_24	smokedetector	False	correct	18823.0600261	
0	mixed	79	memory	2554722.50585	2562732.60504	8010.09918677	2	6010.80734029	True	2561179.20389	445.89070227	takeaway_45	midspeaker	False	incorrect	6729.6211922	
0	mixed	80	rating	2575993.99398	2584004.25556	8010.26158515	novel	6011.00807434	True	2582202.50866	197.506611395	horizontal_14		False	5	1659.42011705	
0	mixed	81	memory	2593707.10909	2601717.30759	8010.1984973	4	6010.98543516	True	2600057.55181	339.457281529	clone_8	teapotsright	False	incorrect	11749.1932151	
0	mixed	82	rating	2620763.2289	2628773.35858	8010.1296742	2	6010.90725453	True	2627488.13239	713.996234652	horizontal_44		False	7	905.337141143	
0	mixed	83	memory	2635397.44377	2643407.64558	8010.20181771	4	6010.92476216	True	2642370.34406	961.975537009	color_90	bookleft	False	correct	9719.29621736	
0	mixed	84	rating	2660574.25304	2668584.42406	8010.17102843	None	None	False	0	0	horizontal_54		False	6	882.685888034	
0	mixed	85	search	2680166.5501	2688176.75252	8010.20242143	4	6010.9953964	True	2686795.40401	617.858508755	takeaway_80	tilesbackleft	False	Z	3105.81099425	
0	mixed	86	memory	2697959.59148	2705969.80175	8010.21026967	2	6010.99781124	True	2705343.1695	1372.58021137	clone_84	flushlever	False	correct	10185.1103026	
0	mixed	87	memory	2725615.43461	2733625.57847	8010.14386142	2	6010.58396705	True	2731950.07608	324.057508344	takeaway_18	hanginglightright	False	correct	6912.73411552	
0	mixed	88	rating	2748886.3157	2756896.49307	8010.1773674	None	None	False	0	0	takeaway_86	cuponshelf	False	7	1763.19932046	
0	mixed	89	search	2766745.97755	2774756.18963	8010.21208081	None	None	False	0	0	takeaway_56	chairstar	False	N	1740.4686793	
0	mixed	90	memory	2787164.70516	2795174.81129	8010.10612945	2	6010.87435226	True	2793514.98246	339.4029475	color_74	fruitleft	False	incorrect	10204.6509325	
0	mixed	91	memory	2815233.68704	2823243.75936	8010.07232161	2	6010.87918195	True	2821619.31466	374.74844099	clone_86	pilarceililng	False	incorrect	5903.11216264	
0	mixed	92	memory	2839477.4962	2847487.564	8010.06779378	None	None	False	0	0	color_32	bookabovetv	False	correct	11954.8336307	
0	mixed	93	search	2868186.17646	2876196.37526	8010.19879916	2	6010.96279598	True	2874425.0204	227.881144915	color_2	bookbinding	False	Z	2305.83628976	
0	mixed	94	rating	2885139.56571	2893149.7793	8010.21359009	None	None	False	0	0	color_19	pillowbottom	False	7	778.808883372	
0	mixed	95	rating	2903905.48897	2911915.84293	8010.353953	novel	6010.97004052	True	2910103.85557	187.396557818	clone_7	xtralight	False	6	1028.29655875	
0	mixed	96	rating	2921072.11816	2929082.33235	8010.2141938	4	6010.97366279	True	2927351.55204	268.46021285	horizontal_81		False	5	1253.32848754	
0	mixed	97	search	2943023.53237	2951033.77313	8010.2407571	4	6010.94800505	True	2949059.92742	25.4470407725	clone_100	klenexright	False	N	2266.71790164	
0	mixed	98	memory	2962495.96253	2970506.12148	8010.1589542	None	None	False	0	0	clone_17	dot	False	correct	7079.3201364	
0	mixed	99	memory	2985913.32062	2993923.57496	8010.25434061	4	6011.07267146	True	2992198.03063	273.637340277	takeaway_73	cabnethandle	False	incorrect	7544.23076749	
0	mixed	100	rating	3012049.84302	3020060.03307	8010.19004534	2	6010.92113989	True	3018293.85805	233.093891316	takeaway_74	sprinkler	False	6	1505.5702945	
0	mixed	101	memory	3028843.18686	3036853.42671	8010.23985153	None	None	False	0	0	takeaway_6	lightsonright	False	correct	10141.7973274	
0	mixed	102	search	3057458.70418	3065468.90056	8010.19638431	novel	6010.97305908	True	3064771.14779	1301.4705505	clone_54	jarleft	False	Z	837.00877887	
0	mixed	103	search	3073079.24467	3081089.36922	8010.12454265	4	6010.91993247	True	3079237.14027	146.975662279	color_1	oranges	False	N	567.911650453	
0	mixed	104	search	3088699.76223	3096709.93235	8010.17012286	None	None	False	0	0	horizontal_69		False	N	2115.19236812	
0	mixed	105	rating	3105373.21652	3113383.39902	8010.18249895	4	6010.94770319	True	3111399.45895	15.2947273962	clone_41	knobsleftcab	False	5	603.974956843	
0	mixed	106	search	3122046.69165	3130056.90343	8010.21177895	novel	6010.98935928	True	3128609.80922	552.12821865	color_64	flowers	False	Z	575.440535781	
0	mixed	107	memory	3139226.59645	3147236.81698	8010.22053277	None	None	False	0	0	horizontal_31		False	incorrect	12691.6051812	
0	mixed	108	memory	3167508.85962	3175519.01404	8010.15442637	novel	6010.95072175	True	3174948.03131	1428.22097408	takeaway_47	appleicon	False	correct	9160.8571012	
0	mixed	109	memory	3195697.83669	3203707.96365	8010.1269575	2	6010.92234731	False	0	0	takeaway_85	switchleftdoor	False	correct	6781.97112388	
0	mixed	110	rating	3219155.32409	3227165.4924	8010.16831173	None	None	False	0	0	takeaway_36	backwindowbuildings	False	7	856.604044685	
0	mixed	111	search	3234282.65558	3242292.88668	8010.23109772	4	6011.02709125	True	3240547.08149	253.398819925	clone_60	xtralight	False	Z	1488.83692275	
0	mixed	112	rating	3249649.9829	3257660.21249	8010.22958844	2	6010.9558533	True	3255868.59677	207.658019205	color_39	painting	False	5	2513.41039307	
0	mixed	113	rating	3266256.81009	3274266.98293	8010.17283957	novel	6010.96641825	True	3272809.6854	541.908893303	takeaway_26	belowlightleft	False	7	1876.61073984	
0	mixed	114	memory	3282423.81418	3290434.01328	8010.19910101	2	6010.95011804	True	3288743.8398	309.075503473	color_65	picright	False	correct	6435.4063476	
0	mixed	115	memory	3304295.27677	3312305.41279	8010.13601317	novel	6010.91993247	False	0	0	takeaway_39	light	False	incorrect	15027.3119054	
0	mixed	116	rating	3334683.35939	3342693.5594	8010.20000658	None	None	False	0	0	takeaway_75	soap	False	6	728.577978841	
0	mixed	117	memory	3354875.41388	3362885.64166	8010.22777731	None	None	False	0	0	takeaway_20	drawerknob	False	incorrect	14590.0370709	
0	mixed	118	rating	3385183.52707	3393193.71651	8010.18944163	2	6011.01350774	True	3391447.82318	253.282605473	horizontal_70		False	3	1483.16746865	
0	mixed	119	memory	3401657.07621	3409666.93934	8009.8631356	4	6011.00897991	False	0	0	clone_18	wine	False	incorrect	2407.38206271	
