blocknr	blocktype	trialnr	trialtype	trialstart	trialend	duration	probeNback	probeonset	probefixated	probefixtime	probeRT	imagename	imagechange	filler	response	RT	
0	blocked	0	rating	10218.2136009	18228.664478	8010.45087707	None	None	False	0	0	clone_72	spotceilling	False	5	19785.874744	
0	blocked	1	rating	76939.0624094	84949.2929312	8010.2305218	4	6024.31877016	True	83267.3241505	303.942970848	horizontal_8		False	3	1554.74439996	
0	blocked	2	rating	97317.781282	105328.000031	8010.2187494	4	6011.0500623	True	103561.876968	233.045623805	horizontal_68		False	4	1535.58345247	
0	blocked	3	rating	114031.253622	122041.502255	8010.24863319	4	6011.04674188	True	121449.922	1407.62163611	clone_77	drawer	False	2	2136.42436441	
0	blocked	4	rating	130318.253687	138328.55907	8010.30538222	2	6010.97218332	True	136531.869108	202.643236965	takeaway_27	reflection	False	4	2310.32572735	
0	blocked	5	rating	146658.555278	154668.826551	8010.27127243	2	6010.99542627	True	152796.329545	126.778840581	color_24	potsleft	False	5	689.773885304	
0	blocked	6	rating	162225.815858	170236.04487	8010.22901252	4	6011.04462889	True	168368.621469	131.760982748	color_22	orange	False	2	890.189119158	
0	blocked	7	rating	177726.424099	185736.631378	8010.20727885	None	None	False	0	0	horizontal_65		False	3	1746.61045293	
0	blocked	8	rating	193040.515788	201050.719143	8010.20335471	novel	6011.07904053	True	200803.282811	1751.68798176	horizontal_70		False	3	2624.33018034	
0	blocked	9	rating	209580.379265	217590.899871	8010.52060593	2	6024.74318046	True	215924.376485	319.254040048	clone_76	window	False	6	2382.31820992	
0	blocked	10	rating	226134.31318	234144.523477	8010.21029741	2	6024.27862324	True	232163.761398	5.16959507758	horizontal_13		False	7	2524.42140139	
0	blocked	11	rating	242287.967515	250298.122271	8010.15475581	novel	6024.32178873	True	248514.87549	202.586186079	horizontal_15		False	4	2463.7361629	
0	blocked	12	rating	258308.420409	266318.665118	8010.24470906	2	6024.28888637	True	265867.131204	1534.42190851	clone_71	cupsshelf	False	7	3757.64119641	
0	blocked	13	rating	275874.878654	283885.096196	8010.21754197	2	6011.0313472	True	283253.03396	1367.1239592	horizontal_81		False	4	1108.23760456	
0	blocked	14	rating	290309.323564	298319.516353	8010.19278973	4	6010.92026399	True	297125.353776	805.109948226	horizontal_75		False	5	4001.39970877	
0	blocked	15	rating	307862.450314	315872.631332	8010.18101733	None	None	False	0	0	horizontal_55		False	5	2191.81503922	
0	blocked	16	rating	324376.02601	332386.219404	8010.19339345	novel	6011.04764745	True	330609.977506	222.903847826	horizontal_39		False	6	1718.05572996	
0	blocked	17	rating	340303.143051	348313.288449	8010.14539826	novel	6010.91966028	True	348005.825227	1691.76251618	horizontal_53		False	5	1966.65753048	
0	blocked	18	rating	356656.755912	364667.009978	8010.25406661	None	None	False	0	0	clone_46	xtrawine	False	5	2247.29415799	
0	blocked	19	rating	373117.037025	381127.267546	8010.2305218	4	6010.97127775	True	379532.94583	404.937527771	takeaway_45	midspeaker	False	4	856.101969554	
0	blocked	20	rating	387631.343817	395641.523627	8010.1798099	2	6024.34201312	True	393660.881385	5.19555473991	color_12	wine	False	5	1072.08002096	
0	blocked	21	rating	403238.611858	411248.778688	8010.16683007	novel	6024.2650397	True	410958.954755	1696.07785725	color_45	flowers	False	7	1029.90039942	
0	blocked	22	rating	417699.655461	425709.864853	8010.20939184	None	None	False	0	0	takeaway_94	topshelf	False	7	1867.14056131	
0	blocked	23	rating	434333.151817	442343.38415	8010.23233294	2	6010.97701302	True	440653.028889	308.900058922	clone_41	knobsleftcab	False	3	2430.66053455	
0	blocked	24	rating	451246.56276	459256.803846	8010.24108678	4	6011.01474509	True	457566.660791	309.083285841	takeaway_64	plant	False	5	1116.87673869	
0	blocked	25	rating	466121.028172	474131.017208	8009.98903657	4	6010.74971505	True	472744.715096	612.93720901	horizontal_42		False	5	2044.9983579	
0	blocked	26	rating	481554.761908	489564.985185	8010.22327724	4	6024.2858678	True	489264.80063	1685.75285436	takeaway_98	handletopright	False	2	3320.08233439	
0	blocked	27	rating	498774.711486	506784.90337	8010.19188416	None	None	False	0	0	clone_94	bottononwheel	False	3	1238.42017947	
0	blocked	28	rating	513995.475472	522005.659206	8010.18373404	2	6024.32601472	True	520293.357466	273.555978691	color_74	fruitleft	False	6	3409.35006665	
0	blocked	29	rating	531055.505078	539065.74043	8010.23535151	4	6010.96342948	True	537304.497783	238.029275254	color_85	mouse	False	2	786.343829086	
0	blocked	30	rating	545463.302395	553473.403119	8010.10072349	2	6010.88041893	True	552243.904913	769.722098796	clone_44	pillow	False	5	1324.96546761	
0	blocked	31	rating	560204.142257	568214.35195	8010.2096937	None	None	False	0	0	horizontal_46		False	5	679.594377258	
0	blocked	32	rating	575984.66116	583994.820142	8010.1589818	novel	6010.96403319	True	583438.199703	1442.57451027	color_10	lighttent	False	4	2058.8876828	
0	blocked	33	rating	591978.41122	599988.581069	8010.16984864	4	6011.00085969	True	598384.751777	395.339697274	clone_66	lightleft	False	4	2840.62578483	
0	blocked	34	rating	609384.968812	617395.186354	8010.21754197	None	None	False	0	0	color_75	lampchord	False	4	2777.83871926	
0	blocked	35	rating	625938.557102	633948.729063	8010.17196163	2	6010.98425758	True	633129.038237	1179.4968776	color_42	cups	False	5	2037.33029625	
0	blocked	36	rating	642452.102914	650462.026146	8009.92323185	2	6024.327524	True	649155.040763	678.610324943	horizontal_9		False	3	2387.46576947	
0	blocked	37	rating	659045.606297	667055.829876	8010.2235791	novel	6010.97218332	True	665618.626903	562.048422618	clone_53	plates	False	4	2105.55409994	
0	blocked	38	rating	675092.729423	683102.930363	8010.20093986	None	None	False	0	0	clone_20	chair	False	4	2026.19541226	
0	blocked	39	rating	690313.11458	698323.644543	8010.52996349	2	6011.31962019	True	696699.12359	374.689389622	horizontal_19		False	5	949.096724494	
