blocknr	blocktype	trialnr	trialtype	trialstart	trialend	duration	probeNback	probeonset	probefixated	probefixtime	probeRT	imagename	imagechange	filler	response	RT	
0	mixed	0	search	335315.449185	343325.669173	8010.21998767	None	None	False	0	0	clone_76	window	False	Z	82241.6697909	
0	mixed	1	memory	489469.191825	497479.495427	8010.30360219	None	None	False	0	0	clone_68	platestopshelf	False	correct	5467.7586058	
0	mixed	2	rating	511020.860463	519031.138105	8010.27764245	4	6024.35868876	True	517227.543768	182.324616294	clone_8	teapotsright	False	6	2339.66992492	
0	mixed	3	search	528640.790541	536650.969174	8010.1786332	4	6024.27688539	True	536628.884981	1963.81755494	clone_92	lights	False	Z	1863.57220521	
0	mixed	4	memory	544874.462618	552884.695284	8010.23266569	4	6011.14759562	True	551225.048614	339.438400252	takeaway_96	jarlid	False	incorrect	9016.01202842	
0	mixed	5	search	570118.110481	578128.266777	8010.15629575	2	6024.35234975	True	576198.265104	55.8022737111	takeaway_98	handletopright	False	Z	1700.18974759	
0	mixed	6	rating	585898.681245	593908.917835	8010.23658983	4	6024.32699372	True	592064.827208	141.818968843	horizontal_44		False	6	1337.98435292	
0	mixed	7	memory	601239.422764	609249.668108	8010.2453437	None	None	False	0	0	color_86	buildingoutside	False	incorrect	5562.15818417	
0	mixed	8	rating	622431.249853	630441.480104	8010.23025083	2	6011.00089289	True	628599.359096	157.108350524	horizontal_55		False	7	908.80131803	
0	mixed	9	memory	637612.084803	645622.416478	8010.33167493	novel	6011.01779691	True	643800.400384	177.297784185	clone_97	xtralight	False	incorrect	6500.87085874	
0	mixed	10	rating	658563.952123	666574.282892	8010.33076936	None	None	False	0	0	horizontal_21		False	7	815.444657153	
0	mixed	11	rating	673491.273603	681501.778242	8010.50463925	None	None	False	0	0	horizontal_63		False	5	1220.90441322	
0	mixed	12	rating	688085.854598	696096.140692	8010.28609445	novel	6024.42026768	True	694581.132943	470.858078098	horizontal_17		False	7	1316.96541498	
0	mixed	13	memory	704226.355355	712236.588323	8010.23296754	4	6011.02806006	True	710946.22651	708.843095101	takeaway_57	lineinlight	False	incorrect	7397.42491447	
0	mixed	14	rating	725818.009238	733828.259713	8010.25047527	2	6011.02383406	False	0	0	clone_58	xtrapillow	False	6	1184.25076868	
0	mixed	15	memory	743944.348957	751954.605771	8010.25681428	novel	6024.36140547	True	750378.931014	410.220651759	horizontal_1		False	incorrect	6326.75042607	
0	mixed	16	search	764856.287178	772866.496298	8010.2091208	novel	6024.34752003	True	771508.589052	627.954354324	takeaway_36	backwindowbuildings	False	N	1515.83936595	
0	mixed	17	rating	780450.319094	788460.459391	8010.14029731	4	6010.87018862	True	786623.233606	162.044323541	clone_4	carpetsquare	False	6	719.007541003	
0	mixed	18	memory	795817.672667	803827.919218	8010.24655113	2	6011.01779691	True	802061.831574	233.14111051	horizontal_53		False	incorrect	4036.5630873	
0	mixed	19	search	816396.417616	824406.651187	8010.23357126	4	6010.97523501	True	824118.872067	1711.47921621	color_16	flowersleft	False	Z	854.92700785	
0	mixed	20	memory	832510.12943	840520.381717	8010.25228642	4	6011.08873341	True	839078.237225	557.019061091	takeaway_63	ovenlogo	False	incorrect	11159.2796112	
0	mixed	21	memory	858140.292174	866150.516689	8010.22451553	4	6011.03862508	True	864313.424023	162.093224447	clone_48	llightswitch	False	correct	1704.89268666	
0	mixed	22	memory	873774.258623	881784.513626	8010.25500314	novel	6011.03409721	True	880301.651583	516.358862625	horizontal_35		False	correct	1902.61746632	
0	mixed	23	search	889741.429512	897751.830916	8010.401404	novel	6010.94444555	True	896476.436706	724.062747712	takeaway_76	reflectionlights	False	Z	911.24787266	
0	mixed	24	rating	905215.494826	913225.695797	8010.20097065	4	6010.97010343	True	911469.743319	243.27838924	takeaway_10	leftoflight	False	5	2015.60542643	
0	mixed	25	rating	936323.411581	944333.70009	8010.28850931	None	None	False	0	0	takeaway_74	sprinkler	False	6	1251.058765	
0	mixed	26	rating	951864.139697	959874.359987	8010.22028953	novel	6024.42328625	True	958491.307411	602.74442756	clone_79	midcouch	False	5	750.127534773	
0	mixed	27	search	966818.369354	974828.620433	8010.25107899	None	None	False	0	0	horizontal_75		False	Z	2952.86707224	
0	mixed	28	rating	984171.673576	992181.892658	8010.2190821	4	6024.3463126	True	990571.10373	375.083840907	color_15	flowers	False	6	1506.05163815	
0	mixed	29	memory	999632.379886	1007642.73843	8010.35854024	2	6024.35114232	True	1005859.40084	202.669808399	clone_30	lightonright	False	correct	6498.28786455	
0	mixed	30	memory	1020570.97091	1028581.18577	8010.2148561	novel	6011.00662819	False	0	0	color_11	lemon2orange	False	incorrect	4407.30259579	
0	mixed	31	search	1041309.63209	1049319.87109	8010.23900469	2	6024.36744262	True	1047339.16522	5.16568653553	horizontal_62		False	N	969.769881992	
0	mixed	32	rating	1056730.28916	1064740.56107	8010.27190715	2	6011.15333091	True	1062751.71651	10.2740201557	takeaway_21	bear	False	5	2738.05776465	
0	mixed	33	rating	1074590.13011	1082600.46118	8010.33107121	2	6011.01296719	True	1082433.78968	1832.64660764	clone_85	glassontable	False	5	819.323223524	
0	mixed	34	memory	1102299.37045	1110309.70182	8010.33137307	novel	6011.09990214	True	1108624.51831	314.047962734	takeaway_17	clock	False	correct	5765.32273693	
0	mixed	35	search	1122225.02628	1130235.34044	8010.3141672	None	None	False	0	0	horizontal_22		False	Z	940.950041988	
0	mixed	36	memory	1141044.46179	1149054.76328	8010.30148918	None	None	False	0	0	color_1	oranges	False	correct	3811.68260776	
0	mixed	37	search	1159557.2859	1167567.5726	8010.28669817	2	6011.06820711	True	1165882.21885	313.864735262	clone_19	plant	False	N	922.605561059	
0	mixed	38	rating	1175138.01466	1183148.28838	8010.2737183	2	6011.00481704	True	1181154.20539	5.18591098487	takeaway_22	lightleft	False	5	880.326501092	
0	mixed	39	search	1193864.10921	1201874.40164	8010.29243346	4	6011.01025048	True	1200948.24926	1073.12979689	takeaway_59	spottopright	False	Z	879.24011613	
0	mixed	40	search	1209671.26758	1217681.58778	8010.32020435	2	6024.40547666	True	1216126.17913	430.506076089	horizontal_36		False	Z	527.728021608	
0	mixed	41	memory	1224638.89276	1232649.10279	8010.21002638	novel	6011.03953065	True	1231054.98575	405.053455936	color_79	bookright	False	incorrect	3746.50343423	
0	mixed	42	memory	1243564.92441	1251575.18152	8010.25711614	None	None	False	0	0	clone_73	xtrahanging	False	incorrect	1818.75754266	
0	mixed	43	rating	1262917.40546	1270927.7142	8010.30873376	novel	6024.43717169	True	1269342.03981	400.197173286	clone_34	xtrafruit	False	5	1063.84737846	
0	mixed	44	memory	1279937.5961	1287947.81579	8010.21968581	2	6010.9888186	True	1286146.21432	197.629392705	clone_55	darklightright	False	incorrect	8479.66356176	
0	mixed	45	memory	1304741.26289	1312751.53872	8010.2758313	None	None	False	0	0	takeaway_70	sceneryabovecouch	False	correct	3571.81007612	
0	mixed	46	rating	1323973.51231	1331984.06736	8010.55504944	2	6024.78249661	False	0	0	clone_90	pillowsplotch	False	6	765.985917746	
0	mixed	47	rating	1339594.58582	1347604.81004	8010.22421368	novel	6011.02383406	True	1345782.94004	177.33038479	takeaway_78	floweronwallright	False	6	748.925840266	
0	mixed	48	rating	1355321.81023	1363332.04984	8010.23960841	None	None	False	0	0	color_21	checkers	False	7	781.385477396	
0	mixed	49	rating	1373248.2364	1380472.11562	7223.87921838	4	6010.95380313	True	1379553.02639	293.836191621	clone_78	fireplacehanging	False	5	1112.98101739	
0	mixed	50	search	1387509.44301	1395519.65122	8010.20821523	None	None	False	0	0	color_41	towelleft	False	N	1694.4647192	
0	mixed	51	rating	1403263.42888	1411273.55379	8010.12490258	2	6024.27145195	True	1409292.8793	5.17896826332	clone_29	topshelf	False	5	820.358896433	
0	mixed	52	rating	1418097.5555	1426107.85276	8010.29726318	4	6011.13159717	True	1424341.71591	233.028819538	horizontal_40		False	5	1081.80457628	
0	mixed	53	memory	1433371.46397	1441381.97827	8010.51429869	4	6011.25505687	True	1439387.91067	5.19164627627	clone_57	xtrabushes	False	incorrect	11466.7999065	
0	mixed	54	memory	1459908.08139	1467918.44536	8010.36397368	4	6011.03319164	False	0	0	takeaway_30	shotglass	False	correct	4506.21464117	
0	mixed	55	search	1495721.00372	1503731.32212	8010.3183932	None	None	False	0	0	takeaway_20	drawerknob	False	N	1385.06536119	
0	mixed	56	memory	1511994.38817	1520004.99876	8010.61059121	4	6011.37640356	False	0	0	horizontal_41		False	correct	3413.40585157	
0	mixed	57	rating	1532013.70886	1540023.8404	8010.13154344	2	6010.98247959	True	1538227.34062	202.649282092	clone_56	tableleg	False	5	954.084463337	
0	mixed	58	search	1547221.16099	1555231.43471	8010.2737183	novel	6024.34087917	False	0	0	takeaway_94	topshelf	False	N	1161.31624337	
0	mixed	59	search	1562508.53683	1570518.84526	8010.3084319	4	6010.84875674	True	1569369.95709	850.57150671	color_32	bookabovetv	False	N	1105.64407022	
0	mixed	60	memory	1577969.27302	1585979.50418	8010.2311564	4	6011.04798266	True	1584466.8799	486.558891483	horizontal_61		False	correct	1896.37807283	
0	mixed	61	search	1597308.41379	1605318.80041	8010.38661298	novel	6024.46554629	True	1605033.8832	1701.00385713	takeaway_16	pillow	False	Z	1065.14445992	
0	mixed	62	memory	1612369.32651	1620379.63615	8010.30963933	2	6011.14155847	True	1618962.89749	582.4294212	color_42	cups	False	correct	13484.8506802	
0	mixed	63	rating	1641144.87648	1649155.14899	8010.27251087	4	6011.09386499	True	1648725.0468	1569.07645506	clone_6	bottomrightobject	False	4	2874.99056695	
0	mixed	64	search	1659471.16748	1667481.50368	8010.33620279	None	None	False	0	0	takeaway_29	dresserknob	False	Z	1119.95211333	
0	mixed	65	search	1676557.97444	1684568.24665	8010.27220901	None	None	False	0	0	horizontal_9		False	Z	1680.87902097	
0	mixed	66	search	1692565.13872	1700575.37803	8010.23930655	4	6011.02383406	True	1698581.33096	5.16840325249	takeaway_53	drawerhandlebottom	False	N	881.464805534	
0	mixed	67	rating	1707346.09738	1715356.34212	8010.24473998	None	None	False	0	0	horizontal_33		False	4	1486.90451826	
0	mixed	68	search	1733589.32566	1741599.57553	8010.24987156	None	None	False	0	0	horizontal_32		False	Z	1664.56241839	
0	mixed	69	search	1750769.35072	1758779.61297	8010.26224772	None	None	False	0	0	color_6	wholecolor	False	N	1017.4479643	
0	mixed	70	search	1766683.21178	1774693.4384	8010.22662854	novel	6011.07213125	True	1774491.52807	1797.24416223	clone_71	cupsshelf	False	N	674.026856861	
0	mixed	71	search	1781224.29216	1789234.52996	8010.23779726	None	None	False	0	0	color_50	lightsintv	False	N	908.770226713	
0	mixed	72	rating	1795565.42338	1803575.65634	8010.23296754	4	6011.00059104	True	1801824.64225	248.218286404	color_12	wine	False	6	1626.03152237	
0	mixed	73	memory	1811239.3633	1819249.62826	8010.26496443	2	6011.03953065	True	1817437.9686	187.565767192	clone_59	statue	False	correct	13552.6789547	
0	mixed	74	rating	1840348.08843	1848358.43218	8010.34374923	4	6011.08239441	True	1846551.67377	192.502947638	horizontal_3		False	6	857.788616473	
0	mixed	75	search	1855009.16741	1863019.40974	8010.24232512	novel	6011.02172106	True	1861516.42165	496.232517171	clone_11	vaseleft	False	Z	938.502883644	
0	mixed	76	rating	1869950.10025	1877960.33201	8010.23176011	2	6010.94021955	True	1876082.64917	121.608707018	color_63	clock	False	4	1607.84098874	
0	mixed	77	rating	1885863.93021	1893874.22596	8010.29575389	novel	6011.03077678	False	0	0	takeaway_69	whitespotonorange	False	5	1350.15947129	
0	mixed	78	memory	1901138.04877	1909148.32007	8010.27130344	None	None	False	0	0	color_85	mouse	False	correct	11153.774335	
0	mixed	79	memory	1927781.11773	1935791.32353	8010.20580037	4	6011.07454611	True	1934010.04431	217.852030686	takeaway_87	bottleshadow	False	correct	6571.53417841	
0	mixed	80	rating	1949439.40755	1957449.69485	8010.28730188	4	6011.01689134	True	1955622.75727	172.332832854	clone_40	xtradoorknob	False	6	1141.75165463	
0	mixed	81	rating	1965446.54135	1973456.83378	8010.29243346	4	6011.09839285	True	1971680.60373	222.963986595	clone_28	wine	False	5	1085.89474472	
0	mixed	82	memory	1980374.17042	1988384.4052	8010.23477869	None	None	False	0	0	takeaway_68	spotonshelf	False	correct	8340.51331463	
0	mixed	83	search	2009242.9557	2017253.28617	8010.3304675	None	None	False	0	0	clone_95	light	False	Z	1138.42156325	
0	mixed	84	rating	2034699.89212	2042710.17217	8010.2800573	novel	6010.96557557	True	2040928.61343	217.755738159	takeaway_65	rugcorner	False	6	855.334515407	
0	mixed	85	rating	2050853.66826	2058863.99994	8010.33167493	novel	6011.00149661	True	2057057.27685	192.607088458	takeaway_32	ceilingfan	False	6	1477.21851642	
0	mixed	86	memory	2066381.01021	2074391.25585	8010.24564556	None	None	False	0	0	color_30	chairsright	False	incorrect	4931.95559556	
0	mixed	87	rating	2089771.94368	2097782.25996	8010.3162802	None	None	False	0	0	clone_14	corner	False	6	767.883997389	
0	mixed	88	memory	2107045.28798	2115055.68938	8010.401404	4	6011.0802814	True	2113977.97708	921.60882776	horizontal_5		False	correct	2101.65321288	
0	mixed	89	memory	2126864.36579	2134874.6063	8010.24051398	novel	6011.02926749	True	2133270.3384	394.943344376	clone_13	xtrapillow	False	correct	6770.54336152	
0	mixed	90	search	2149948.83788	2157959.04911	8010.21123381	novel	6010.91848581	True	2156374.87677	415.120401881	takeaway_85	switchleftdoor	False	Z	753.783028488	
0	mixed	91	rating	2167102.18992	2175112.44643	8010.25651242	novel	6011.04677523	True	2173604.61685	491.380158668	takeaway_61	fanlever	False	5	2719.97439041	
0	mixed	92	rating	2184308.90099	2192319.19614	8010.29515018	2	6010.98821488	True	2190330.13183	10.2426269809	takeaway_81	lightabovetv	False	5	699.802766343	
0	mixed	93	search	2199169.87209	2207180.0957	8010.22360996	novel	6010.97644244	False	0	0	clone_88	lightright	False	N	1795.84384552	
0	mixed	94	search	2215176.9917	2223187.14045	8010.14874931	2	6024.34993489	True	2221206.52785	5.18621284189	color_71	ventreflection	False	N	3124.39756799	
0	mixed	95	memory	2243032.93778	2251043.16199	8010.22421368	2	6011.00270404	False	0	0	color_59	dressflowers	False	correct	4938.51827837	
0	mixed	96	search	2264211.12363	2272221.59054	8010.46690707	4	6011.26592373	True	2270450.35532	227.965764536	takeaway_35	birdhouse	False	N	1049.21997016	
0	mixed	97	memory	2279592.16221	2287602.41691	8010.25470128	2	6011.01568391	True	2285694.40706	91.2291695722	clone_42		False	correct	1482.70839786	
0	mixed	98	memory	2296865.51828	2304875.76815	8010.24987156	4	6010.95199199	True	2302881.62449	5.15421595192	takeaway_9	overheadlight	False	correct	4718.33349332	
0	mixed	99	search	2322455.71812	2330465.89524	8010.17712391	4	6010.85630318	True	2328699.56037	232.98595578	horizontal_52		False	N	788.234019213	
0	mixed	100	search	2346513.05352	2354523.28559	8010.23206197	2	6011.02443778	True	2353258.13581	734.057851584	takeaway_80	tilesbackleft	False	N	930.051176912	
0	mixed	101	memory	2361480.61924	2369490.81478	8010.19553722	2	6024.37921506	True	2367904.96411	399.965648622	color_9	chairs	False	incorrect	2555.44608192	
0	mixed	102	search	2379806.8547	2387817.03665	8010.18195363	None	None	False	0	0	color_61	apple	False	N	1097.03358647	
0	mixed	103	search	2399332.62518	2407342.94236	8010.31718577	novel	6011.09809099	True	2405348.95778	5.23451003386	horizontal_54		False	N	997.521146624	
0	mixed	104	search	2414713.40778	2422723.67516	8010.26737929	None	None	False	0	0	color_78	ovenclock	False	Z	2277.8419728	
0	mixed	105	search	2436958.14233	2444968.47159	8010.32926007	None	None	False	0	0	horizontal_39		False	Z	1315.30580273	
0	mixed	106	memory	2455444.41627	2463454.67761	8010.26134214	2	6010.9888186	True	2461637.7122	182.307108562	clone_72	spotceilling	False	correct	2947.37839824	
0	mixed	107	search	2474317.17762	2482327.35384	8010.17621834	4	6024.30767485	False	0	0	color_68	vase	False	N	2171.74270154	
0	mixed	108	memory	2491057.34658	2499067.60188	8010.25530499	None	None	False	0	0	takeaway_55	vase	False	incorrect	16424.2316671	
0	mixed	109	search	2525364.09774	2533374.3624	8010.26466257	2	6011.05341609	True	2531380.41012	5.25896048732	takeaway_42	lights	False	Z	1707.8463618	
0	mixed	110	rating	2541531.23591	2549541.47552	8010.23960841	novel	6011.0072319	True	2547760.16852	217.925382046	clone_100	klenexright	False	6	935.202978005	
0	mixed	111	rating	2556285.52877	2564295.77653	8010.24775856	None	None	False	0	0	horizontal_76		False	5	745.923566071	
0	mixed	112	search	2570879.91809	2578890.11634	8010.19825394	2	6010.99153531	True	2577610.80644	719.896813049	color_33	chairmiddle	False	Z	1188.62498498	
0	mixed	113	rating	2590379.02127	2598389.32276	8010.30148918	novel	6011.13763432	True	2596613.4818	223.322895103	color_88	bowltopshelf	False	6	758.467252391	
0	mixed	114	memory	2605173.37937	2613183.61385	8010.23447683	4	6011.00028918	True	2611351.67902	167.299359881	horizontal_69		False	incorrect	3842.26771013	
0	mixed	115	rating	2624672.55259	2632682.79219	8010.23960841	2	6010.89554464	True	2631417.64182	734.193687437	takeaway_97	knife	False	5	1576.37234962	
0	mixed	116	memory	2640132.86014	2648143.5145	8010.65436054	2	6011.38696857	True	2646149.42155	5.17444040114	clone_62	robotbottomshelf	False	correct	14882.5442478	
0	mixed	117	memory	2676705.85471	2684716.01915	8010.1644459	2	6010.91305238	True	2683425.57131	708.803551776	horizontal_23		False	incorrect	9219.289174	
0	mixed	118	memory	2705214.89171	2713225.05646	8010.16474776	novel	6010.92090067	True	2711909.25561	683.442998145	color_51	dots	False	correct	9993.21213153	
0	mixed	119	search	2738815.18989	2746825.39327	8010.20338551	None	None	False	0	0	takeaway_18	hanginglightright	False	Z	781.03351161	
