blocknr	blocktype	trialnr	trialtype	trialstart	trialend	duration	probeNback	probeonset	probefixated	probefixtime	probeRT	imagename	imagechange	filler	response	RT	
0	mixed	0	search	635760.688923	643770.991318	8010.30239476	novel	6024.33936988	True	642114.592936	329.564643075	clone_52	latle	False	N	18470.2791155	
0	mixed	1	search	671493.196737	679503.808234	8010.61149678	novel	6010.95802914	True	677787.687054	283.532287578	clone_15	xtracupx2	False	Z	1505.03226554	
0	mixed	2	memory	692645.383302	700655.578235	8010.1949335	novel	6024.36351847	True	699155.801006	486.054185827	color_50	lightsintv	False	incorrect	12397.8230644	
0	mixed	3	rating	719754.895071	727765.141622	8010.24655113	novel	6024.30858042	True	726573.913117	794.709465223	takeaway_88	fruitontable	False	5	10669.3227104	
0	mixed	4	memory	745198.437163	753208.668923	8010.23176011	None	None	False	0	0	color_12	wine	False	correct	16286.6106298	
0	mixed	5	search	789141.456136	797151.720799	8010.26466257	None	None	False	0	0	horizontal_45		False	Z	1239.12452888	
0	mixed	6	search	805321.887503	813332.191105	8010.30360219	None	None	False	0	0	color_60	paper	False	Z	1471.64985019	
0	mixed	7	memory	821742.285278	829752.536357	8010.25107899	None	None	False	0	0	takeaway_30	shotglass	False	incorrect	14605.4840858	
0	mixed	8	rating	852690.271014	860700.593633	8010.3226192	2	6024.45105713	False	0	0	color_51	dots	False	5	4497.07620874	
0	mixed	9	rating	877427.346534	885437.696622	8010.35008823	novel	6024.46675372	True	883882.322986	430.509698378	color_27	pillowleft	False	4	906.278997181	
0	mixed	10	rating	896686.599521	904696.862373	8010.26285143	None	None	False	0	0	color_86	buildingoutside	False	4	1094.68030579	
0	mixed	11	search	912040.694006	920051.002438	8010.3084319	4	None	False	0	0	color_55	flowerleft	False	N	1303.06337014	
0	mixed	12	rating	931433.193513	939443.468137	8010.27462387	4	6011.07756469	True	937449.50921	5.23813232349	takeaway_49	chairlegs	False	5	1059.49006617	
0	mixed	13	search	947733.577596	955743.820827	8010.2432307	4	6024.33876616	True	954218.659198	460.742834961	fillers_1-8_7	filler	True	Z	1006.84341024	
0	mixed	14	search	963567.532152	971577.702032	8010.16987934	novel	6010.91939138	True	969943.303021	364.851477079	color_20	limes	False	N	946.068035047	
0	mixed	15	search	978801.598758	986811.850441	8010.2516827	novel	6010.94323812	False	0	0	clone_82	rug	False	N	655.612948719	
0	mixed	16	search	992942.849631	1000953.03883	8010.18919821	novel	6024.29680798	False	0	0	color_59	dressflowers	False	N	735.765761034	
0	mixed	17	memory	1008989.95086	1017000.18957	8010.23870283	novel	6024.39762837	False	0	0	color_94	fruit	False	correct	18930.4378563	
0	mixed	18	rating	1044242.99525	1048841.22902	4598.23377169	4	None	False	0	0	horizontal_68		False	3	2033.17111514	
0	mixed	19	memory	1058877.3523	1066887.5584	8010.20610223	2	7290.59726119	True	1066471.79716	303.847595796	takeaway_26	belowlightleft	False	incorrect	12138.0116408	
0	mixed	20	rating	1086573.32449	1087692.89114	1119.56664137	4	None	False	0	0	clone_98	wine	False	6	2220.77491637	
0	mixed	21	memory	1109924.29113	1117934.58115	8010.2900186	2	None	False	0	0	takeaway_5	thermostat	False	correct	3970.47411542	
0	mixed	22	search	1127450.88991	1135461.25358	8010.36367182	4	None	False	0	0	takeaway_3	wallpaint	False	Z	905.090282545	
0	mixed	23	search	1141552.14044	1148003.08559	6450.94514586	2	None	False	0	0	takeaway_10	leftoflight	False	N	1019.00464317	
0	mixed	24	rating	1156772.88366	1157985.73301	1212.84934717	4	None	False	0	0	color_7	greenonleft	False	5	934.71004479	
0	mixed	25	search	1165209.65449	1173219.96745	8010.31295977	2	None	False	0	0	color_29	cupright	False	N	1569.63911734	
0	mixed	26	search	1182069.87245	1190080.00551	8010.13305273	novel	6024.32971044	False	0	0	clone_100	klenexright	False	Z	1213.1400359	
0	mixed	27	memory	1198010.31266	1206020.65158	8010.33891951	4	6011.10805229	True	1204411.36862	389.947905441	color_100	stereoright	False	incorrect	7362.91294854	
0	mixed	28	rating	1219295.43875	1223507.1824	4211.74364333	None	None	False	0	0	clone_61	towel	False	5	1028.13703845	
0	mixed	29	memory	1231557.39638	1239567.63539	8010.23900469	novel	6011.11499501	True	1237897.88555	329.374171024	horizontal_10		False	correct	6052.54885412	
0	mixed	30	rating	1274300.93829	1277672.86108	3371.92278969	2	None	False	0	0	horizontal_3		False	4	1077.45873458	
0	mixed	31	search	1284403.61511	1292414.96947	8011.35436797	None	None	False	0	0	clone_8	teapotsright	False	N	781.2903923	
0	mixed	32	search	1300850.63188	1308860.92884	8010.29696132	4	None	False	0	0	fillers_1-8_8	filler	True	Z	534.309419583	
0	mixed	33	search	1315338.3665	1323349.60224	8011.23573799	2	6011.0455678	False	0	0	clone_27	bottomshelf	False	N	624.916460951	
0	mixed	34	rating	1329892.74009	1330892.32383	999.583738577	4	None	False	0	0	clone_53	plates	False	4	1017.05162547	
0	mixed	35	search	1338769.33804	1346779.62927	8010.29122603	None	None	False	0	0	horizontal_13		False	N	1585.53372321	
0	mixed	36	search	1354709.84194	1362720.09362	8010.2516827	4	6024.32578629	True	1361063.34177	329.174039535	horizontal_56		False	N	1124.7869641	
0	mixed	37	memory	1369917.30766	1377927.16723	8009.85956988	4	6024.12867338	False	0	0	takeaway_61	fanlever	False	incorrect	12580.8362176	
0	mixed	38	search	1396027.2215	1404037.5085	8010.28700003	2	6024.37559277	True	1402411.11083	359.513731797	color_1	oranges	False	N	1694.689603	
0	mixed	39	memory	1419298.25448	1427308.49439	8010.23991026	novel	6011.04043622	True	1425552.36623	243.07131503	color_23	bluebooks	False	incorrect	9271.15522657	
0	mixed	40	search	1444648.455	1449033.51221	4385.05721104	2	None	False	0	0	fillers_1-8_2	filler	True	N	511.089638985	
0	mixed	41	memory	1454857.84355	1462868.12814	8010.28458517	4	6010.98217773	True	1461350.14528	481.31955173	takeaway_36	backwindowbuildings	False	correct	9486.59571809	
0	mixed	42	rating	1477568.73113	1479141.80991	1573.07878298	2	None	False	0	0	color_37	redtogreenright	False	5	837.033200093	
0	mixed	43	rating	1485312.77533	1486619.01605	1306.24072166	novel	None	False	0	0	takeaway_93	statueheadleft	False	6	551.756478314	
0	mixed	44	memory	1493936.10885	1498960.84396	5024.735105	novel	None	False	0	0	color_53	wine	False	incorrect	9633.2736863	
0	mixed	45	rating	1514021.66733	1516447.40285	2425.73552095	novel	None	False	0	0	horizontal_2		False	6	546.752285514	
0	mixed	46	rating	1523258.12072	1524097.91682	839.79610133	2	None	False	0	0	takeaway_27	reflection	False	4	1837.57835465	
0	mixed	47	memory	1531175.11898	1533307.59002	2132.47104734	2	None	False	0	0	takeaway_32	ceilingfan	False	incorrect	11070.0982425	
0	mixed	48	search	1550247.70724	1558258.06669	8010.35944581	2	6024.43868098	True	1556626.69319	354.547271179	clone_42		False	Z	1340.83358538	
0	mixed	49	search	1564842.13278	1569360.28679	4518.15400888	novel	None	False	0	0	color_79	bookright	False	Z	1046.107518	
0	mixed	50	rating	1582808.47658	1585287.61491	2479.1383298	4	None	False	0	0	takeaway_71	stickerdesk	False	3	620.100627199	
0	mixed	51	memory	1592164.92706	1598362.44326	6197.51619616	4	6024.27628167	False	0	0	color_5	applesgreen	False	incorrect	8808.6432051	
0	mixed	52	memory	1614596.28015	1621753.46698	7157.18683346	None	None	False	0	0	clone_51	bookshelf	False	incorrect	4258.48506198	
0	mixed	53	rating	1650662.31901	1652474.94311	1812.62410114	novel	None	False	0	0	horizontal_52		False	6	831.831290664	
0	mixed	54	rating	1658859.17233	1660538.51097	1679.3386424	2	None	False	0	0	takeaway_96	jarlid	False	4	823.837501683	
0	mixed	55	search	1666469.54741	1670201.43461	3731.88719466	4	None	False	0	0	clone_97	xtralight	False	Z	678.073859688	
0	mixed	56	memory	1676292.43648	1681530.38497	5237.94849225	4	None	False	0	0	takeaway_48	handleleft	False	correct	10960.2526185	
0	mixed	57	memory	1699616.80133	1707000.57806	7383.77673174	novel	6010.95501056	True	1706538.94474	911.188406742	color_34	IAcolor	False	correct	14416.801446	
0	mixed	58	rating	1727779.20788	1728818.77445	1039.56656893	2	None	False	0	0	color_35	v	False	4	496.918337296	
0	mixed	59	memory	1734549.93899	1742560.15506	8010.21606353	2	6024.37438534	True	1742123.45306	1549.13967608	takeaway_86	cuponshelf	False	correct	5737.3891504	
0	mixed	60	rating	1754968.69889	1756581.11272	1612.41382724	4	None	False	0	0	color_18	magcolor	False	3	1104.51572708	
0	mixed	61	memory	1762805.71609	1769110.02855	6304.31245627	None	None	False	0	0	clone_57	xtrabushes	False	correct	12483.0820974	
0	mixed	62	memory	1787542.84987	1793447.29116	5904.44128903	2	None	False	0	0	color_64	flowers	False	correct	4067.51011675	
0	mixed	63	search	1803003.57882	1811013.78885	8010.21002638	novel	6010.95651985	False	0	0	fillers_1-8_4	filler	True	Z	647.176938574	
0	mixed	64	memory	1817198.12565	1822729.29997	5531.17432811	novel	None	False	0	0	takeaway_13	lightreflectionleft	False	correct	2585.65356062	
0	mixed	65	search	1831365.92971	1838056.70181	6690.77209702	4	6010.97282015	False	0	0	clone_49	vase	False	N	561.190429187	
0	mixed	66	rating	1843787.83708	1844960.81136	1172.97427993	4	None	False	0	0	horizontal_51		False	4	595.669190799	
0	mixed	67	memory	1851011.71267	1858302.23296	7290.52028754	4	6011.08933713	True	1857317.07408	294.272073779	horizontal_29		False	incorrect	1568.73233757	
0	mixed	68	rating	1865166.27455	1866565.7364	1399.46184854	novel	None	False	0	0	horizontal_60		False	4	726.308868994	
0	mixed	69	search	1872390.14441	1880400.35625	8010.21183752	None	None	False	0	0	color_30	chairsright	False	Z	512.772796124	
0	mixed	70	search	1886091.50929	1893635.25025	7543.7409556	2	6970.72344968	False	0	0	takeaway_16	pillow	False	N	1117.62086825	
0	mixed	71	memory	1900219.42018	1904884.34966	4664.92947704	None	None	False	0	0	takeaway_39	light	False	incorrect	6178.48227282	
0	mixed	72	memory	1917452.78195	1921277.96151	3825.1795599	novel	None	False	0	0	color_21	checkers	False	correct	9509.16741075	
0	mixed	73	search	1936432.12615	1941963.31798	5531.19183584	2	None	False	0	0	fillers_1-8_5	filler	True	N	588.75333477	
0	mixed	74	memory	1949387.09445	1953266.52504	3879.43058818	novel	None	False	0	0	color_67	lightleft	False	correct	6270.97501767	
0	mixed	75	rating	1965714.18507	1967833.36563	2119.18056569	novel	None	False	0	0	takeaway_4	ceilinglights	False	5	1088.92509166	
0	mixed	76	search	1974110.88794	1981787.92462	7677.03667749	novel	6011.0860167	True	1981449.00028	1327.02632378	takeaway_80	tilesbackleft	False	N	1190.02650912	
0	mixed	77	search	1988252.13549	1996262.38597	8010.25047527	2	6010.99244089	True	1995650.85658	1387.72864947	takeaway_15	cat	False	Z	923.437480191	
0	mixed	78	rating	2002873.16282	2003699.5151	826.352276096	2	None	False	0	0	horizontal_28		False	2	470.109471623	
0	mixed	79	memory	2013495.72932	2019600.13336	6104.40403982	4	None	False	0	0	takeaway_14	sharkteeth	False	incorrect	13422.7205687	
0	mixed	80	search	2039112.51314	2045456.72843	6344.21529439	None	None	False	0	0	clone_79	midcouch	False	Z	2024.13048452	
0	mixed	81	memory	2052640.27859	2055719.53881	3079.26021984	2	None	False	0	0	takeaway_33		False	correct	4633.51245554	
0	mixed	82	rating	2066248.68556	2068541.18905	2292.50349098	None	None	False	0	0	clone_96	NtoMinPoster	False	3	363.306268794	
0	mixed	83	search	2073925.7645	2078750.58274	4824.81823654	novel	None	False	0	0	color_75	lampchord	False	N	671.106084178	
0	mixed	84	memory	2084708.25991	2089639.8584	4931.5984982	novel	None	False	0	0	horizontal_17		False	correct	1448.72890847	
0	mixed	85	memory	2097370.05248	2100275.60249	2905.55001144	2	None	False	0	0	horizontal_77		False	correct	1281.8820329	
0	mixed	86	rating	2107299.23612	2108805.70009	1506.46397543	2	None	False	0	0	takeaway_90	exitsign	False	5	513.962114475	
0	mixed	87	rating	2116762.56406	2119348.33776	2585.77369988	2	None	False	0	0	takeaway_40	handleshadow	False	5	1043.34552234	
0	mixed	88	memory	2125879.043	2131730.11016	5851.06715664	4	None	False	0	0	takeaway_91	table	False	correct	3594.84904411	
0	mixed	89	memory	2141086.51144	2147337.5204	6251.00895853	4	None	False	0	0	takeaway_41	leftdrawerhandle	False	correct	8387.19194693	
0	mixed	90	rating	2162411.6756	2163931.00142	1519.3258195	4	None	False	0	0	takeaway_85	switchleftdoor	False	4	635.757671255	
0	mixed	91	search	2169862.13174	2177872.28653	8010.15478646	4	6024.41845653	False	0	0	horizontal_8		False	N	843.611881351	
0	mixed	92	rating	2184189.83875	2186335.66579	2145.82703206	4	None	False	0	0	color_99	thermlid	False	5	1086.64365306	
0	mixed	93	memory	2192666.26489	2196518.13922	3851.87432346	2	None	False	0	0	horizontal_40		False	correct	2637.51991505	
0	mixed	94	memory	2205448.32502	2209126.96245	3678.63742755	None	None	False	0	0	takeaway_78	floweronwallright	False	incorrect	8618.38336017	
0	mixed	95	search	2223974.53681	2225760.63399	1786.09717033	2	None	False	0	0	clone_22	xtra.orb.by.stair.rail	False	N	661.166823935	
0	mixed	96	search	2231478.33629	2236263.15661	4784.82031332	None	None	False	0	0	horizontal_9		False	Z	702.391797688	
0	mixed	97	memory	2243020.58064	2244713.27104	1692.69040111	2	None	False	0	0	horizontal_32		False	correct	1311.65332759	
0	mixed	98	search	2252643.40553	2260653.68951	8010.28398145	None	None	False	0	0	horizontal_43		False	Z	844.778560393	
0	mixed	99	rating	2266784.70168	2268050.8669	1266.16522107	novel	None	False	0	0	color_58	peppers	False	5	415.397808877	
0	mixed	100	rating	2273715.36261	2274581.66814	866.305524413	None	None	False	0	0	color_57	shampoo	False	4	537.822134724	
0	mixed	101	memory	2280259.51772	2283431.68543	3172.16771683	4	None	False	0	0	takeaway_6	lightsonright	False	incorrect	5368.5154228	
0	mixed	102	rating	2294827.1857	2296080.06799	1252.88228586	2	None	False	0	0	horizontal_26		False	4	1007.16971814	
0	mixed	103	memory	2311234.25134	2316378.8794	5144.62805427	novel	None	False	0	0	takeaway_43	reflectionlightlefttele	False	incorrect	7681.92103288	
0	mixed	104	rating	2335211.66939	2336117.90854	906.239151998	None	None	False	0	0	takeaway_29	dresserknob	False	4	533.796865633	
0	mixed	105	rating	2341929.07346	2343408.4898	1479.41634051	4	None	False	0	0	takeaway_7	drawerhandles	False	5	371.190483521	
0	mixed	106	search	2348913.02732	2356923.36503	8010.33771208	2	6011.01417462	True	2356534.07488	1610.0333794	color_56	book	False	N	922.752565638	
0	mixed	107	rating	2363054.25012	2364013.88786	959.637734837	None	None	False	0	0	horizontal_59		False	4	909.396882779	
0	mixed	108	memory	2370158.15278	2371317.73334	1159.58056304	4	None	False	0	0	clone_45	dressknob	False	correct	3592.90115799	
0	mixed	109	rating	2381820.27498	2383393.03621	1572.76122895	None	None	False	0	0	horizontal_47		False	4	1353.92061511	
0	mixed	110	memory	2390630.28318	2394215.59987	3585.31668771	4	None	False	0	0	color_33	chairmiddle	False	correct	4382.65502946	
0	mixed	111	rating	2405251.30357	2407024.06166	1772.75808963	4	None	False	0	0	takeaway_59	spottopright	False	4	402.599958585	
0	mixed	112	search	2412715.12233	2419152.71421	6437.59187786	4	None	False	0	0	horizontal_53		False	Z	927.056751012	
0	mixed	113	rating	2425283.59689	2426509.8312	1226.2343102	novel	None	False	0	0	clone_72	spotceilling	False	5	631.030583593	
0	mixed	114	search	2432440.85677	2437292.31845	4851.46168433	4	None	False	0	0	takeaway_52	lightbase	False	N	738.991409741	
0	mixed	115	memory	2444263.01202	2445702.32177	1439.30974861	None	None	False	0	0	takeaway_58	drawerhandle	False	correct	1268.37753432	
0	mixed	116	rating	2453206.01379	2454392.36277	1186.34897981	None	None	False	0	0	color_38	bottleright	False	7	457.356598091	
0	mixed	117	search	2460030.2117	2468040.48391	8010.27220901	novel	6011.12676745	True	2467165.6965	1124.35802467	color_62	fruit	False	Z	646.32871914	
0	mixed	118	memory	2473998.17255	2475237.68829	1239.51573613	novel	None	False	0	0	color_32	bookabovetv	False	correct	4164.321838	
0	mixed	119	rating	2486126.8728	2487486.23289	1359.36008636	None	None	False	0	0	takeaway_17	clock	False	4	765.457063495	
